File: Benchmarks/PeriodicFFValidation/input_files/PXRD/Structures_Database/bor_18-08-01_28-01-01_None/COF-108_PXRD.dat
1.15, 0.0643778
1.18, 0.0643777
1.21, 0.064377
1.24, 0.0643802
1.27, 0.0643718
1.3, 0.0643834
1.33, 0.0643988
1.36, 0.0642438
1.39, 0.0649216
1.42, 0.0655999
1.45, 0.0655611
1.48, 0.0665234
1.51, 0.0668267
1.54, 0.0666824
1.57, 0.0667257
1.6, 0.0667194
1.63, 0.0667174
1.66, 0.0667193
1.69, 0.0667185
1.72, 0.0667187
1.75, 0.0667187
1.78, 0.0667186
1.81, 0.066719
1.84, 0.066718
1.87, 0.066719
1.9, 0.0667224
1.93, 0.0667001
1.96, 0.0667731
1.99, 0.0666276
2.02, 0.0666738
2.05, 0.0685906
2.08, 0.0691915
2.11, 0.0692641
2.14, 0.070409
2.17, 0.0713372
2.2, 0.0714923
2.23, 0.0712502
2.26, 0.0717044
2.29, 0.072586
2.32, 0.0724563
2.35, 0.0739187
2.38, 0.0756534
2.41, 0.0760899
2.44, 0.0760744
2.47, 0.0769259
2.5, 0.0779489
2.53, 0.0787665
2.56, 0.0798135
2.59, 0.0816796
2.62, 0.0843647
2.65, 0.0871551
2.68, 0.0899811
2.71, 0.0926449
2.74, 0.0951776
2.77, 0.100934
2.8, 0.107543
2.83, 0.112244
2.86, 0.117011
2.89, 0.126063
2.92, 0.13585
2.95, 0.15384
2.98, 0.174895
3.01, 0.183268
3.04, 0.190275
3.07, 0.203786
3.1, 0.216671
3.13, 0.211149
3.16, 0.181684
3.19, 0.159293
3.22, 0.129937
3.25, 0.0984927
3.28, 0.0865502
3.31, 0.0821601
3.34, 0.0750942
3.37, 0.0697254
3.4, 0.0689869
3.43, 0.0680154
3.46, 0.0660068
3.49, 0.0654673
3.52, 0.0652869
3.55, 0.0643145
3.58, 0.0643451
3.61, 0.0644027
3.64, 0.0643701
3.67, 0.0643753
3.7, 0.064379
3.73, 0.0644072
3.76, 0.0642359
3.79, 0.0648471
3.82, 0.0655666
3.85, 0.0655032
3.88, 0.0672558
3.91, 0.0686579
3.94, 0.0693762
3.97, 0.0703671
4, 0.071306
4.03, 0.0719626
4.06, 0.0741077
4.09, 0.0767674
4.12, 0.0785147
4.15, 0.0811837
4.18, 0.0847619
4.21, 0.0884883
4.24, 0.094186
4.27, 0.102698
4.3, 0.108721
4.33, 0.112488
4.36, 0.11663
4.39, 0.119438
4.42, 0.116497
4.45, 0.110684
4.48, 0.102384
4.51, 0.0953667
4.54, 0.0909546
4.57, 0.084999
4.6, 0.0844621
4.63, 0.0860499
4.66, 0.0869559
4.69, 0.0900198
4.72, 0.0957111
4.75, 0.0994933
4.78, 0.104821
4.81, 0.112156
4.84, 0.118319
4.87, 0.13143
4.9, 0.139375
4.93, 0.146475
4.96, 0.163028
4.99, 0.181767
5.02, 0.197104
5.05, 0.220181
5.08, 0.24777
5.11, 0.288721
5.14, 0.377587
5.17, 0.430782
5.2, 0.457495
5.23, 0.538323
5.26, 0.683974
5.29, 0.770569
5.32, 0.822424
5.35, 0.8502
5.38, 0.829083
5.41, 0.749539
5.44, 0.603804
5.47, 0.471988
5.5, 0.395787
5.53, 0.331481
5.56, 0.229978
5.59, 0.144594
5.62, 0.106039
5.65, 0.0987936
5.68, 0.0931785
5.71, 0.0809122
5.74, 0.0738025
5.77, 0.0716051
5.8, 0.0688096
5.83, 0.0670661
5.86, 0.0642812
5.89, 0.0624822
5.92, 0.0617535
5.95, 0.0608564
5.98, 0.0609269
6.01, 0.0601494
6.04, 0.0596319
6.07, 0.0596039
6.1, 0.0585932
6.13, 0.0575549
6.16, 0.0572426
6.19, 0.0574556
6.22, 0.0572658
6.25, 0.0562879
6.28, 0.0560485
6.31, 0.0564001
6.34, 0.0557572
6.37, 0.0537568
6.4, 0.0526375
6.43, 0.0534762
6.46, 0.0535771
6.49, 0.0524915
6.52, 0.0526364
6.55, 0.0537323
6.58, 0.0532963
6.61, 0.052528
6.64, 0.0526839
6.67, 0.0526531
6.7, 0.0532517
6.73, 0.0551017
6.76, 0.0563148
6.79, 0.0562101
6.82, 0.0572013
6.85, 0.0573672
6.88, 0.0576802
6.91, 0.0588116
6.94, 0.0596835
6.97, 0.0598177
7, 0.059133
7.03, 0.0580454
7.06, 0.0572864
7.09, 0.0573192
7.12, 0.0579547
7.15, 0.0598866
7.18, 0.0608288
7.21, 0.0610255
7.24, 0.0648208
7.27, 0.0676977
7.3, 0.0715022
7.33, 0.0779595
7.36, 0.0854048
7.39, 0.09274
7.42, 0.100537
7.45, 0.109754
7.48, 0.121889
7.51, 0.135874
7.54, 0.144611
7.57, 0.147838
7.6, 0.146393
7.63, 0.139526
7.66, 0.128244
7.69, 0.119161
7.72, 0.107412
7.75, 0.0935748
7.78, 0.0817919
7.81, 0.0691271
7.84, 0.0632917
7.87, 0.0604039
7.9, 0.0568175
7.93, 0.0551314
7.96, 0.0532459
7.99, 0.0519884
8.02, 0.0511132
8.05, 0.0502889
8.08, 0.0503265
8.11, 0.050226
8.14, 0.0508398
8.17, 0.0516124
8.2, 0.0514985
8.23, 0.0515032
8.26, 0.051444
8.29, 0.0517514
8.32, 0.0530482
8.35, 0.0549284
8.38, 0.0559406
8.41, 0.0569594
8.44, 0.0602217
8.47, 0.0632909
8.5, 0.0637202
8.53, 0.0724595
8.56, 0.078072
8.59, 0.0790704
8.62, 0.0859509
8.65, 0.0992398
8.68, 0.107714
8.71, 0.11605
8.74, 0.124016
8.77, 0.125217
8.8, 0.126899
8.83, 0.128335
8.86, 0.122814
8.89, 0.11222
8.92, 0.103421
8.95, 0.0869724
8.98, 0.0750261
9.01, 0.0720845
9.04, 0.0699733
9.07, 0.0642552
9.1, 0.0611567
9.13, 0.0608272
9.16, 0.0608406
9.19, 0.0608564
9.22, 0.0617247
9.25, 0.0626855
9.28, 0.063667
9.31, 0.0644406
9.34, 0.0643969
9.37, 0.0639229
9.4, 0.0610501
9.43, 0.0575081
9.46, 0.0561468
9.49, 0.0554578
9.52, 0.0518473
9.55, 0.0499044
9.58, 0.0503374
9.61, 0.0491719
9.64, 0.0471788
9.67, 0.046644
9.7, 0.046876
9.73, 0.0468105
9.76, 0.0468183
9.79, 0.0468224
9.82, 0.0468192
9.85, 0.0468202
9.88, 0.0468203
9.91, 0.0468209
9.94, 0.0468154
9.97, 0.0468352
10, 0.0467911
10.03, 0.0468237
10.06, 0.047611
10.09, 0.0493835
10.12, 0.0509077
10.15, 0.0516246
10.18, 0.0525625
10.21, 0.0544294
10.24, 0.0557039
10.27, 0.0565692
10.3, 0.0574001
10.33, 0.057369
10.36, 0.057402
10.39, 0.057037
10.42, 0.0556614
10.45, 0.0537984
10.48, 0.0527704
10.51, 0.0526385
10.54, 0.0526339
10.57, 0.052765
10.6, 0.053761
10.63, 0.0555191
10.66, 0.0575368
10.69, 0.0589823
10.72, 0.0598075
10.75, 0.0607448
10.78, 0.0615662
10.81, 0.0628962
10.84, 0.0627775
10.87, 0.0608191
10.9, 0.0608686
10.93, 0.0601713
10.96, 0.0596022
10.99, 0.0596374
11.02, 0.0596543
11.05, 0.0615335
11.08, 0.0624752
11.11, 0.0645221
11.14, 0.0683446
11.17, 0.0701098
11.2, 0.070979
11.23, 0.0721981
11.26, 0.0722838
11.29, 0.0700644
11.32, 0.0673097
11.35, 0.0644902
11.38, 0.0618923
11.41, 0.0587895
11.44, 0.0550813
11.47, 0.0530551
11.5, 0.0518586
11.53, 0.0514991
11.56, 0.051403
11.59, 0.0504097
11.62, 0.0502261
11.65, 0.0504591
11.68, 0.0500882
11.71, 0.0490843
11.74, 0.0481847
11.77, 0.0471179
11.8, 0.0468253
11.83, 0.0466372
11.86, 0.045653
11.89, 0.0456079
11.92, 0.0456125
11.95, 0.045821
11.98, 0.0453914
12.01, 0.0434244
12.04, 0.0431878
12.07, 0.0432853
12.1, 0.0435192
12.13, 0.044593
12.16, 0.045559
12.19, 0.0457139
12.22, 0.045625
12.25, 0.0456564
12.28, 0.0456494
12.31, 0.0456407
12.34, 0.0456876
12.37, 0.0455455
12.4, 0.0458095
12.43, 0.0467903
12.46, 0.0466939
12.49, 0.047849
12.52, 0.0498133
12.55, 0.050277
12.58, 0.0500521
12.61, 0.0535369
12.64, 0.0556474
12.67, 0.0569941
12.7, 0.0609651
12.73, 0.0636688
12.76, 0.06722
12.79, 0.070253
12.82, 0.0716521
12.85, 0.072543
12.88, 0.0726573
12.91, 0.0722204
12.94, 0.0704438
12.97, 0.0675319
13, 0.0648319
13.03, 0.0611461
13.06, 0.0580952
13.09, 0.0550149
13.12, 0.0513845
13.15, 0.0502952
13.18, 0.0506013
13.21, 0.0493777
13.24, 0.0479284
13.27, 0.0491027
13.3, 0.0501645
13.33, 0.0504606
13.36, 0.0501505
13.39, 0.0505316
13.42, 0.0524915
13.45, 0.0533173
13.48, 0.0555007
13.51, 0.0578239
13.54, 0.0586112
13.57, 0.060568
13.6, 0.0610574
13.63, 0.0607795
13.66, 0.0609177
13.69, 0.0608767
13.72, 0.0600112
13.75, 0.0590165
13.78, 0.0581497
13.81, 0.0571788
13.84, 0.0562401
13.87, 0.0561261
13.9, 0.0562052
13.93, 0.0561864
13.96, 0.0561783
13.99, 0.0561442
14.02, 0.0564086
14.05, 0.0553128
14.08, 0.0534691
14.11, 0.0526765
14.14, 0.0518026
14.17, 0.0507043
14.2, 0.0503012
14.23, 0.0502528
14.26, 0.0492696
14.29, 0.0482118
14.32, 0.0479005
14.35, 0.0480277
14.38, 0.0479762
14.41, 0.0479325
14.44, 0.0486458
14.47, 0.0498099
14.5, 0.0503552
14.53, 0.0503371
14.56, 0.051294
14.59, 0.0516118
14.62, 0.0514647
14.65, 0.0515115
14.68, 0.051506
14.71, 0.0514676
14.74, 0.0516287
14.77, 0.0511689
14.8, 0.0502901
14.83, 0.0503564
14.86, 0.0496733
14.89, 0.0485144
14.92, 0.0479118
14.95, 0.0479937
14.98, 0.0479996
15.01, 0.0479854
15.04, 0.0479925
15.07, 0.0479901
15.1, 0.0479905
15.13, 0.0479923
15.16, 0.0479843
15.19, 0.0480063
15.22, 0.0479736
15.25, 0.0479414
15.28, 0.0486897
15.31, 0.0498183
15.34, 0.0504102
15.37, 0.0503288
15.4, 0.0503485
15.43, 0.0502103
15.46, 0.0507726
15.49, 0.0515965
15.52, 0.0515078
15.55, 0.0515033
15.58, 0.0514387
15.61, 0.0517229
15.64, 0.0529011
15.67, 0.0547667
15.7, 0.0566784
15.73, 0.0583244
15.76, 0.0606313
15.79, 0.0633234
15.82, 0.0649339
15.85, 0.0692366
15.88, 0.0727489
15.91, 0.0741084
15.94, 0.0760358
15.97, 0.0779698
16, 0.0792038
16.03, 0.0797445
16.06, 0.0777433
16.09, 0.0728753
16.12, 0.0720691
16.15, 0.0680778
16.18, 0.0634884
16.21, 0.0631506
16.24, 0.0612868
16.27, 0.0593937
16.3, 0.0573411
16.33, 0.0561093
16.36, 0.0561886
16.39, 0.0543697
16.42, 0.0530717
16.45, 0.0522058
16.48, 0.0514648
16.51, 0.0515356
16.54, 0.0506354
16.57, 0.0502385
16.6, 0.0502928
16.63, 0.0503909
16.66, 0.0513753
16.69, 0.0515927
16.72, 0.0514682
16.75, 0.05151
16.78, 0.051502
16.81, 0.0515012
16.84, 0.0515027
16.87, 0.051502
16.9, 0.0515022
16.93, 0.0515022
16.96, 0.0515021
16.99, 0.0515021
17.02, 0.0515022
17.05, 0.0515021
17.08, 0.051502
17.11, 0.0515028
17.14, 0.0515
17.17, 0.0515064
17.2, 0.0515009
17.23, 0.0514757
17.26, 0.0516279
17.29, 0.0510787
17.32, 0.0502402
17.35, 0.050322
17.38, 0.0503508
17.41, 0.0503166
17.44, 0.0503509
17.47, 0.0503129
17.5, 0.0502783
17.53, 0.0510583
17.56, 0.0520666
17.59, 0.0529624
17.62, 0.053883
17.65, 0.0547791
17.68, 0.0558613
17.71, 0.0561787
17.74, 0.0563468
17.77, 0.057334
17.8, 0.0573231
17.83, 0.0579011
17.86, 0.058826
17.89, 0.0583015
17.92, 0.0563448
17.95, 0.0560407
17.98, 0.0562182
18.01, 0.0562288
18.04, 0.0561493
18.07, 0.0551951
18.1, 0.0547758
18.13, 0.0555546
18.16, 0.0561938
18.19, 0.0561654
18.22, 0.0579425
18.25, 0.0594102
18.28, 0.059756
18.31, 0.0596809
18.34, 0.0596831
18.37, 0.0597844
18.4, 0.0592498
18.43, 0.0581031
18.46, 0.0573389
18.49, 0.057419
18.52, 0.0565681
18.55, 0.056157
18.58, 0.0560102
18.61, 0.0550172
18.64, 0.0549555
18.67, 0.0550443
18.7, 0.0550039
18.73, 0.0550153
18.76, 0.055014
18.79, 0.0550131
18.82, 0.0550143
18.85, 0.0550125
18.88, 0.0550146
18.91, 0.0550182
18.94, 0.0549866
18.97, 0.0550997
19, 0.0548351
19.03, 0.0538318
19.06, 0.052923
19.09, 0.0518982
19.12, 0.0514008
19.15, 0.0515208
19.18, 0.0515048
19.21, 0.0514982
19.24, 0.0515039
19.27, 0.0515016
19.3, 0.0515022
19.33, 0.0515022
19.36, 0.0515019
19.39, 0.0515027
19.42, 0.051501
19.45, 0.0515025
19.48, 0.0515092
19.51, 0.0514686
19.54, 0.0515976
19.57, 0.0513451
19.6, 0.0503677
19.63, 0.0502585
19.66, 0.0503945
19.69, 0.0502426
19.72, 0.0504215
19.75, 0.0514062
19.78, 0.0515793
19.81, 0.0514851
19.84, 0.051478
19.87, 0.0515161
19.9, 0.0523339
19.93, 0.0541487
19.96, 0.0555743
19.99, 0.0564085
20.02, 0.057334
20.05, 0.0574048
20.08, 0.0573386
20.11, 0.0573384
20.14, 0.0573821
20.17, 0.0574194
20.2, 0.0564815
20.23, 0.0561758
20.26, 0.0559512
20.29, 0.0549759
20.32, 0.0549537
20.35, 0.0551331
20.38, 0.0546465
20.41, 0.0535564
20.44, 0.0526824
20.47, 0.052638
20.5, 0.052661
20.53, 0.0527526
20.56, 0.0525586
20.59, 0.0515737
20.62, 0.0514265
20.65, 0.0515341
20.68, 0.0514937
20.71, 0.0515029
20.74, 0.0515025
20.77, 0.0515036
20.8, 0.0514963
20.83, 0.0515132
20.86, 0.0515029
20.89, 0.0514167
20.92, 0.0520913
20.95, 0.0530964
20.98, 0.0540316
21.01, 0.0549662
21.04, 0.0550713
21.07, 0.0549889
21.1, 0.0550195
21.13, 0.0550139
21.16, 0.0550177
21.19, 0.054987
21.22, 0.0550996
21.25, 0.0548351
21.28, 0.0538318
21.31, 0.052923
21.34, 0.0518982
21.37, 0.0514008
21.4, 0.0515208
21.43, 0.0515048
21.46, 0.0514982
21.49, 0.0515039
21.52, 0.0515016
21.55, 0.0515022
21.58, 0.0515022
21.61, 0.0515021
21.64, 0.0515022
21.67, 0.0515021
21.7, 0.0515021
21.73, 0.0515021
21.76, 0.0515021
21.79, 0.0515021
21.82, 0.0515021
21.85, 0.0515021
21.88, 0.0515021
21.91, 0.0515021
21.94, 0.0515021
21.97, 0.0515021
22, 0.0515021
22.03, 0.0515021
22.06, 0.0515021
22.09, 0.0515021
22.12, 0.0515021
22.15, 0.0515021
22.18, 0.0515021
22.21, 0.0515021
22.24, 0.0515021
22.27, 0.0515021
22.3, 0.0515021
22.33, 0.0515021
22.36, 0.0515022
22.39, 0.0515021
22.42, 0.0515021
22.45, 0.0515028
22.48, 0.0514999
22.51, 0.051507
22.54, 0.0514993
22.57, 0.0514777
22.6, 0.0516308
22.63, 0.0510351
22.66, 0.0502445
22.69, 0.0503314
22.72, 0.0502375
22.75, 0.0509859
22.78, 0.0516298
22.81, 0.0514815
22.84, 0.051497
22.87, 0.0515077
22.9, 0.0514998
22.93, 0.0515028
22.96, 0.0515021
22.99, 0.0515021
23.02, 0.0515022
23.05, 0.0515021
23.08, 0.0515021
23.11, 0.0515021
23.14, 0.0515021
23.17, 0.0515021
23.2, 0.0515021
23.23, 0.0515021
23.26, 0.0515021
23.29, 0.0515021
23.32, 0.0515021
23.35, 0.0515021
23.38, 0.0515021
23.41, 0.0515022
23.44, 0.0515021
23.47, 0.0515023
23.5, 0.0515019
23.53, 0.0515022
23.56, 0.0515036
23.59, 0.0514953
23.62, 0.051521
23.65, 0.051474
23.68, 0.0514729
23.71, 0.0522871
23.74, 0.0533548
23.77, 0.054028
23.8, 0.053738
23.83, 0.0527093
23.86, 0.0533644
23.89, 0.0541072
23.92, 0.0535712
23.95, 0.0526582
23.98, 0.0526296
24.01, 0.0526995
24.04, 0.052658
24.07, 0.0526845
24.1, 0.0526805
24.13, 0.0525647
24.16, 0.0532685
24.19, 0.0540391
24.22, 0.0537458
24.25, 0.0527857
24.28, 0.0524397
24.31, 0.0533457
24.34, 0.0537024
24.37, 0.0526397
24.4, 0.0525934
24.43, 0.0528316
24.46, 0.0522197
24.49, 0.0514086
24.52, 0.0514958
24.55, 0.0515182
24.58, 0.0514944
24.61, 0.0515045
24.64, 0.0515018
24.67, 0.0515019
24.7, 0.0515029
24.73, 0.0514999
24.76, 0.0515069
24.79, 0.0514993
24.82, 0.051478
24.85, 0.051629
24.88, 0.0510403
24.91, 0.0502353
24.94, 0.050329
24.97, 0.0503156
25, 0.0504565
25.03, 0.0499404
25.06, 0.0491159
25.09, 0.0491967
25.12, 0.0483168
25.15, 0.0478859
25.18, 0.0479733
25.21, 0.0480251
25.24, 0.0489368
25.27, 0.0500169
25.3, 0.05045
25.33, 0.0502607
25.36, 0.0503283
25.39, 0.0512842
25.42, 0.0516378
25.45, 0.0513855
25.48, 0.0516279
25.51, 0.0526023
25.54, 0.0528628
25.57, 0.0520535
25.6, 0.0513904
25.63, 0.0515143
25.66, 0.0515102
25.69, 0.0514967
25.72, 0.0515027
25.75, 0.0515048
25.78, 0.0515018
25.81, 0.0514801
25.84, 0.0516028
25.87, 0.0511646
25.9, 0.0501392
25.93, 0.0492343
25.96, 0.0482191
25.99, 0.047898
26.02, 0.0480165
26.05, 0.0479878
26.08, 0.0479903
26.11, 0.0479836
26.14, 0.0480174
26.17, 0.0479361
26.2, 0.0480065
26.23, 0.0489519
26.26, 0.0493878
26.29, 0.0487038
26.32, 0.0479059
26.35, 0.0479818
26.38, 0.0480067
26.41, 0.0479831
26.44, 0.0479927
26.47, 0.0479905
26.5, 0.0479909
26.53, 0.0479884
26.56, 0.0479986
26.59, 0.0479739
26.62, 0.0479981
26.65, 0.048085
26.68, 0.0472557
26.71, 0.0466941
26.74, 0.0468458
26.77, 0.0468219
26.8, 0.0468159
26.83, 0.0468217
26.86, 0.046821
26.89, 0.0468184
26.92, 0.0468161
26.95, 0.0468507
26.98, 0.0467143
27.01, 0.04707
27.04, 0.0480344
27.07, 0.0481199
27.1, 0.0472123
27.13, 0.0467035
27.16, 0.046845
27.19, 0.046821
27.22, 0.0468163
27.25, 0.0468221
27.28, 0.0468195
27.31, 0.0468202
27.34, 0.0468202
27.37, 0.0468201
27.4, 0.0468202
27.43, 0.04682
27.46, 0.0468202
27.49, 0.0468206
27.52, 0.0468177
27.55, 0.0468276
27.58, 0.0468063
27.61, 0.0468193
27.64, 0.0469264
27.67, 0.0461398
27.7, 0.0455239
27.73, 0.0456714
27.76, 0.0456538
27.79, 0.0456445
27.82, 0.0456519
27.85, 0.045649
27.88, 0.0456497
27.91, 0.0456497
27.94, 0.0456496
27.97, 0.0456496
28, 0.0456496
28.03, 0.0456496
28.06, 0.0456496
28.09, 0.0456496
28.12, 0.0456496
28.15, 0.0456496
28.18, 0.0456496
28.21, 0.0456497
28.24, 0.0456495
28.27, 0.0456499
28.3, 0.0456493
28.33, 0.0456486
28.36, 0.0456562
28.39, 0.0456282
28.42, 0.0456927
28.45, 0.0456371
28.48, 0.0447606
28.51, 0.0436613
28.54, 0.0432167
28.57, 0.0433257
28.6, 0.0433099
28.63, 0.0433135
28.66, 0.0432778
28.69, 0.0433881
28.72, 0.0432203
28.75, 0.0422353
28.78, 0.0420559
28.81, 0.0421708
28.84, 0.04213
28.87, 0.0421386
28.9, 0.042139
28.93, 0.0421376
28.96, 0.0421383
28.99, 0.0421381
29.02, 0.0421381
29.05, 0.0421381
29.08, 0.0421381
29.11, 0.0421381
29.14, 0.0421381
29.17, 0.0421381
29.2, 0.0421381
29.23, 0.0421381
29.26, 0.0421381
29.29, 0.0421381
29.32, 0.0421381
29.35, 0.0421381
29.38, 0.0421381
29.41, 0.0421381
29.44, 0.0421381
29.47, 0.0421381
29.5, 0.0421381
29.53, 0.0421381
29.56, 0.0421381
29.59, 0.0421381
29.62, 0.0421381
29.65, 0.0421381
29.68, 0.0421381
29.71, 0.0421381
29.74, 0.0421381
29.77, 0.0421381
29.8, 0.0421382
29.83, 0.042138
29.86, 0.0421381
29.89, 0.0421387
29.92, 0.0421357
29.95, 0.0421446
29.98, 0.0421291
30.01, 0.0421257
30.04, 0.0422577
30.07, 0.0415497
30.1, 0.0408477
30.13, 0.0409805
30.16, 0.0409752
30.19, 0.0409681
30.22, 0.0409483
30.25, 0.0410089
30.28, 0.0409626
30.31, 0.0400882
30.34, 0.0390391
30.37, 0.0384119
30.4, 0.0388309
30.43, 0.0397983
30.46, 0.0388901
30.49, 0.0389456
30.52, 0.040334
30.55, 0.0409482
30.58, 0.0399998
30.61, 0.0388907
30.64, 0.0385421
30.67, 0.0386469
30.7, 0.0386258
30.73, 0.0386243
30.76, 0.0386279
30.79, 0.0386262
30.82, 0.0386267
30.85, 0.0386266
30.88, 0.0386266
30.91, 0.0386266
30.94, 0.0386266
30.97, 0.0386266
31, 0.0386267
31.03, 0.0386261
31.06, 0.0386283
31.09, 0.038623
31.12, 0.0386282
31.15, 0.0386468
31.18, 0.038526
31.21, 0.0389934
31.24, 0.0400253
31.27, 0.0409299
31.3, 0.0418994
31.33, 0.042568
31.36, 0.0443007
31.39, 0.047213
31.42, 0.049046
31.45, 0.0493281
31.48, 0.0487585
31.51, 0.0474338
31.54, 0.0455413
31.57, 0.0437901
31.6, 0.0410308
31.63, 0.0390119
31.66, 0.038596
31.69, 0.0386255
31.72, 0.0386313
31.75, 0.0386242
31.78, 0.0386273
31.81, 0.0386265
31.84, 0.0386266
31.87, 0.0386266
31.9, 0.0386266
31.93, 0.0386266
31.96, 0.0386266
31.99, 0.0386266
32.02, 0.0386266
32.05, 0.0386266
32.08, 0.0386266
32.11, 0.0386266
32.14, 0.0386266
32.17, 0.0386266
32.2, 0.0386266
32.23, 0.0386266
32.26, 0.0386266
32.29, 0.0386266
32.32, 0.0386266
32.35, 0.0386266
32.38, 0.0386266
32.41, 0.0386266
32.44, 0.0386266
32.47, 0.0386266
32.5, 0.0386266
32.53, 0.0386266
32.56, 0.0386266
32.59, 0.0386266
32.62, 0.0386266
32.65, 0.0386266
32.68, 0.0386266
32.71, 0.0386266
32.74, 0.0386266
32.77, 0.0386266
32.8, 0.0386266
32.83, 0.0386266
32.86, 0.0386267
32.89, 0.0386265
32.92, 0.0386269
32.95, 0.0386265
32.98, 0.0386247
33.01, 0.0386356
33.04, 0.0386009
33.07, 0.0386674
33.1, 0.0386571
33.13, 0.0377181
33.16, 0.0373428
33.19, 0.037489
33.22, 0.0374517
33.25, 0.0374546
33.28, 0.0374553
33.31, 0.0374637
33.34, 0.0374392
33.37, 0.0374637
33.4, 0.0375523
33.43, 0.0367121
33.46, 0.036186
33.49, 0.0362669
33.52, 0.0362655
33.55, 0.0372059
33.58, 0.03757
33.61, 0.0374205
33.64, 0.0374631
33.67, 0.0374621
33.7, 0.0374217
33.73, 0.0375708
33.76, 0.0371884
33.79, 0.0362523
33.82, 0.036246
33.85, 0.036311
33.88, 0.0362766
33.91, 0.0362875
33.94, 0.0362857
33.97, 0.0362853
34, 0.0362858
34.03, 0.0362856
34.06, 0.0362856
34.09, 0.0362856
34.12, 0.0362856
34.15, 0.0362856
34.18, 0.0362856
34.21, 0.0362856
34.24, 0.0362856
34.27, 0.0362856
34.3, 0.0362856
34.33, 0.0362856
34.36, 0.0362856
34.39, 0.0362857
34.42, 0.0362854
34.45, 0.0362862
34.48, 0.0362848
34.51, 0.0362845
34.54, 0.0362965
34.57, 0.0362455
34.6, 0.0363783
34.63, 0.0362058
34.66, 0.0351601
34.69, 0.0358156
34.72, 0.0364412
34.75, 0.0362529
34.78, 0.0362857
34.81, 0.0362639
34.84, 0.036403
34.87, 0.0358957
34.89, 0.0352185