File: Benchmarks/PeriodicFFValidation/PXRDs/input_files/PXRD/Structures_Database/dia_30-03-12_06-12-12/PI-COF-4_PXRD.dat
3.48, 0.0432522
3.51, 0.0432522
3.54, 0.0432522
3.57, 0.0432522
3.6, 0.0432522
3.63, 0.0432522
3.66, 0.0432523
3.69, 0.043252
3.72, 0.0432524
3.75, 0.0432529
3.78, 0.0432501
3.81, 0.0432527
3.84, 0.0432625
3.87, 0.0432286
3.9, 0.0432402
3.93, 0.0433958
3.96, 0.0430211
3.99, 0.0429014
4.02, 0.0457292
4.05, 0.0487028
4.08, 0.0486922
4.11, 0.0478416
4.14, 0.0484775
4.17, 0.0515913
4.2, 0.0551173
4.23, 0.0583021
4.26, 0.0618393
4.29, 0.0642513
4.32, 0.0656912
4.35, 0.0692197
4.38, 0.0754617
4.41, 0.0836015
4.44, 0.0924928
4.47, 0.102945
4.5, 0.115893
4.53, 0.12905
4.56, 0.144375
4.59, 0.1674
4.62, 0.199662
4.65, 0.237793
4.68, 0.274917
4.71, 0.313357
4.74, 0.358427
4.77, 0.412412
4.8, 0.463736
4.83, 0.503227
4.86, 0.549236
4.89, 0.602668
4.92, 0.648924
4.95, 0.687282
4.98, 0.722535
5.01, 0.76097
5.04, 0.804409
5.07, 0.846109
5.1, 0.868189
5.13, 0.858575
5.16, 0.817495
5.19, 0.765918
5.22, 0.719093
5.25, 0.680014
5.28, 0.63291
5.31, 0.574082
5.34, 0.516228
5.37, 0.460596
5.4, 0.408377
5.43, 0.365362
5.46, 0.318086
5.49, 0.257857
5.52, 0.208818
5.55, 0.173872
5.58, 0.141554
5.61, 0.116201
5.64, 0.0959783
5.67, 0.0722505
5.7, 0.0531968
5.73, 0.0444174
5.76, 0.0399757
5.79, 0.0379542
5.82, 0.0380135
5.85, 0.0382564
5.88, 0.0381559
5.91, 0.0381344
5.94, 0.0382059
5.97, 0.0381748
6, 0.0379589
6.03, 0.0385621
6.06, 0.0403236
6.09, 0.0422415
6.12, 0.0434337
6.15, 0.0434587
6.18, 0.042721
6.21, 0.0435126
6.24, 0.0470875
6.27, 0.0486883
6.3, 0.0483283
6.33, 0.049883
6.36, 0.0511316
6.39, 0.0509048
6.42, 0.051088
6.45, 0.0505324
6.48, 0.0487022
6.51, 0.0482319
6.54, 0.0482622
6.57, 0.0467485
6.6, 0.0445321
6.63, 0.043252
6.66, 0.0436586
6.69, 0.0420595
6.72, 0.0384848
6.75, 0.0376768
6.78, 0.0382815
6.81, 0.0382132
6.84, 0.0381248
6.87, 0.0381692
6.9, 0.0381693
6.93, 0.0381608
6.96, 0.0381638
6.99, 0.0381642
7.02, 0.0381635
7.05, 0.0381637
7.08, 0.0381636
7.11, 0.038164
7.14, 0.0381642
7.17, 0.0381615
7.2, 0.0381658
7.23, 0.0381719
7.26, 0.0381364
7.29, 0.0381717
7.32, 0.0382904
7.35, 0.0378614
7.38, 0.0380368
7.41, 0.0409903
7.44, 0.0441762
7.47, 0.0456201
7.5, 0.0465241
7.53, 0.0492324
7.56, 0.0555333
7.59, 0.0649747
7.62, 0.0744949
7.65, 0.0836997
7.68, 0.104253
7.71, 0.128931
7.74, 0.138673
7.77, 0.152573
7.8, 0.178749
7.83, 0.198578
7.86, 0.216094
7.89, 0.239125
7.92, 0.262672
7.95, 0.284939
7.98, 0.306394
8.01, 0.325756
8.04, 0.343137
8.07, 0.360362
8.1, 0.379857
8.13, 0.395795
8.16, 0.394861
8.19, 0.383168
8.22, 0.368806
8.25, 0.349893
8.28, 0.330894
8.31, 0.31648
8.34, 0.301003
8.37, 0.282242
8.4, 0.262377
8.43, 0.244104
8.46, 0.222471
8.49, 0.18809
8.52, 0.158226
8.55, 0.144832
8.58, 0.135552
8.61, 0.125423
8.64, 0.115357
8.67, 0.107842
8.7, 0.104256
8.73, 0.10412
8.76, 0.104073
8.79, 0.102069
8.82, 0.0985814
8.85, 0.0961639
8.88, 0.0948145
8.91, 0.0904383
8.94, 0.0858756
8.97, 0.0844134
9, 0.0825091
9.03, 0.078559
9.06, 0.0734673
9.09, 0.0695733
9.12, 0.06643
9.15, 0.0615201
9.18, 0.0572716
9.21, 0.0542674
9.24, 0.0491491
9.27, 0.0453919
9.3, 0.0457066
9.33, 0.0449919
9.36, 0.0431303
9.39, 0.0428803
9.42, 0.0438881
9.45, 0.0457047
9.48, 0.0484684
9.51, 0.0528001
9.54, 0.0577993
9.57, 0.0618043
9.6, 0.0728165
9.63, 0.0933235
9.66, 0.108851
9.69, 0.11809
9.72, 0.127451
9.75, 0.139113
9.78, 0.152487
9.81, 0.165633
9.84, 0.178283
9.87, 0.19131
9.9, 0.205919
9.93, 0.220064
9.96, 0.23144
9.99, 0.239853
10.02, 0.248227
10.05, 0.258421
10.08, 0.265688
10.11, 0.269751
10.14, 0.272806
10.17, 0.269751
10.2, 0.260632
10.23, 0.252174
10.26, 0.244155
10.29, 0.234403
10.32, 0.222121
10.35, 0.208836
10.38, 0.195988
10.41, 0.182187
10.44, 0.167247
10.47, 0.152311
10.5, 0.138924
10.53, 0.12806
10.56, 0.119136
10.59, 0.107152
10.62, 0.0919692
10.65, 0.0817264
10.68, 0.0748646
10.71, 0.0668316
10.74, 0.0577175
10.77, 0.0505252
10.8, 0.0482495
10.83, 0.0487147
10.86, 0.0484632
10.89, 0.0451542
10.92, 0.0428599
10.95, 0.0432361
10.98, 0.0423762
11.01, 0.0401535
11.04, 0.0383515
11.07, 0.0384662
11.1, 0.0379338
11.13, 0.0343199
11.16, 0.0328926
11.19, 0.033122
11.22, 0.0299496
11.25, 0.0274519
11.28, 0.0278717
11.31, 0.0281283
11.34, 0.0279558
11.37, 0.02797
11.4, 0.0280012
11.43, 0.0279833
11.46, 0.0279714
11.49, 0.0280262
11.52, 0.0279877
11.55, 0.027786
11.58, 0.0284474
11.61, 0.0302438
11.64, 0.032188
11.67, 0.0332311
11.7, 0.0331448
11.73, 0.0330143
11.76, 0.0330892
11.79, 0.0331171
11.82, 0.0329664
11.85, 0.0330879
11.88, 0.0343024
11.91, 0.0371
11.94, 0.0404223
11.97, 0.0422089
12, 0.0439819
12.03, 0.0473179
12.06, 0.0518281
12.09, 0.0569486
12.12, 0.0619556
12.15, 0.0660004
12.18, 0.0716518
12.21, 0.0815392
12.24, 0.0901051
12.27, 0.0961367
12.3, 0.10381
12.33, 0.112336
12.36, 0.120396
12.39, 0.128377
12.42, 0.136667
12.45, 0.144952
12.48, 0.151781
12.51, 0.15833
12.54, 0.16646
12.57, 0.174307
12.6, 0.180371
12.63, 0.184316
12.66, 0.186219
12.69, 0.186031
12.72, 0.183535
12.75, 0.179635
12.78, 0.174897
12.81, 0.16848
12.84, 0.162281
12.87, 0.15786
12.9, 0.15085
12.93, 0.142641
12.96, 0.137541
12.99, 0.126294
13.02, 0.109067
13.05, 0.0999967
13.08, 0.0951516
13.11, 0.0883671
13.14, 0.082964
13.17, 0.0780959
13.2, 0.0715346
13.23, 0.0653903
13.26, 0.0610541
13.29, 0.0580933
13.32, 0.053744
13.35, 0.0487555
13.38, 0.0476442
13.41, 0.0486002
13.44, 0.0486171
13.47, 0.0470523
13.5, 0.0457145
13.53, 0.045908
13.56, 0.0449634
13.59, 0.043217
13.62, 0.042973
13.65, 0.0435018
13.68, 0.043363
13.71, 0.0416758
13.74, 0.0405974
13.77, 0.040813
13.8, 0.0395602
13.83, 0.0379812
13.86, 0.0379777
13.89, 0.0384011
13.92, 0.0381119
13.95, 0.0366282
13.98, 0.0346342
14.01, 0.0331375
14.04, 0.0329089
14.07, 0.0331267
14.1, 0.0330953
14.13, 0.0330249
14.16, 0.0331168
14.19, 0.0332014
14.22, 0.0326238
14.25, 0.0332724
14.28, 0.0367598
14.31, 0.0387052
14.34, 0.038191
14.37, 0.0380494
14.4, 0.0381989
14.43, 0.0381721
14.46, 0.0381541
14.49, 0.0381658
14.52, 0.0381651
14.55, 0.038162
14.58, 0.0381643
14.61, 0.0381678
14.64, 0.0381528
14.67, 0.0381627
14.7, 0.0382213
14.73, 0.0380505
14.76, 0.0380602
14.79, 0.0393415
14.82, 0.0412117
14.85, 0.0428209
14.88, 0.0443246
14.91, 0.0460807
14.94, 0.047926
14.97, 0.0483539
15, 0.0483488
15.03, 0.050001
15.06, 0.0511572
15.09, 0.0509246
15.12, 0.0508287
15.15, 0.0508865
15.18, 0.0508636
15.21, 0.0510109
15.24, 0.0507761
15.27, 0.0503935
15.3, 0.052739
15.33, 0.0560509
15.36, 0.0563981
15.39, 0.0557113
15.42, 0.055893
15.45, 0.0572316
15.48, 0.0592004
15.51, 0.0608527
15.54, 0.0612003
15.57, 0.061081
15.6, 0.0612257
15.63, 0.0602624
15.66, 0.0583955
15.69, 0.05675
15.72, 0.0551712
15.75, 0.053538
15.78, 0.0519603
15.81, 0.050213
15.84, 0.0485642
15.87, 0.0480026
15.9, 0.0485302
15.93, 0.0488243
15.96, 0.0462461
15.99, 0.0430776
16.02, 0.0429192
16.05, 0.0434063
16.08, 0.0432603
16.11, 0.0431683
16.14, 0.0433618
16.17, 0.0433616
16.2, 0.04216
16.23, 0.0401802
16.26, 0.0384713
16.29, 0.0379664
16.32, 0.0381854
16.35, 0.0381943
16.38, 0.0381493
16.41, 0.0381636
16.44, 0.0381666
16.47, 0.0381628
16.5, 0.0381636
16.53, 0.0381639
16.56, 0.0381638
16.59, 0.0381639
16.62, 0.0381627
16.65, 0.0381645
16.68, 0.0381676
16.71, 0.0381519
16.74, 0.0381648
16.77, 0.0382227
16.8, 0.0380365
16.83, 0.0380784
16.86, 0.03943
16.89, 0.0412394
16.92, 0.0428128
16.95, 0.0446805
16.98, 0.0458881
17.01, 0.0457804
17.04, 0.0462912
17.07, 0.0484786
17.1, 0.051911
17.13, 0.0543189
17.16, 0.0557879
17.19, 0.0586995
17.22, 0.0622364
17.25, 0.0654365
17.28, 0.0686909
17.31, 0.07188
17.34, 0.0750265
17.37, 0.0788927
17.4, 0.0814764
17.43, 0.081078
17.46, 0.0829918
17.49, 0.0864257
17.52, 0.0853314
17.55, 0.083694
17.58, 0.0839997
17.61, 0.0828834
17.64, 0.0810557
17.67, 0.0796152
17.7, 0.0766888
17.73, 0.0735539
17.76, 0.0721056
17.79, 0.0696015
17.82, 0.0662328
17.85, 0.0645812
17.88, 0.0625572
17.91, 0.0590992
17.94, 0.0558682
17.97, 0.0524244
18, 0.0489461
18.03, 0.048086
18.06, 0.0482772
18.09, 0.0467411
18.12, 0.0446501
18.15, 0.0432553
18.18, 0.0430442
18.21, 0.0434391
18.24, 0.0433728
18.27, 0.0418945
18.3, 0.040394
18.33, 0.0404042
18.36, 0.0419878
18.39, 0.0433424
18.42, 0.0432029
18.45, 0.0438775
18.48, 0.0458495
18.51, 0.0477636
18.54, 0.0484485
18.57, 0.0483152
18.6, 0.0492619
18.63, 0.0519404
18.66, 0.0553513
18.69, 0.0571083
18.72, 0.0590889
18.75, 0.0627317
18.78, 0.0637496
18.81, 0.0636784
18.84, 0.0667698
18.87, 0.0700608
18.9, 0.0712376
18.93, 0.0708296
18.96, 0.0721057
18.99, 0.0756817
19.02, 0.0773725
19.05, 0.0756773
19.08, 0.0720847
19.11, 0.0709108
19.14, 0.0712045
19.17, 0.0696969
19.2, 0.0677829
19.23, 0.0662362
19.26, 0.0645448
19.29, 0.0631439
19.32, 0.0615538
19.35, 0.0582148
19.38, 0.0556354
19.41, 0.0557725
19.44, 0.0561155
19.47, 0.055954
19.5, 0.055901
19.53, 0.0561231
19.56, 0.0559921
19.59, 0.0546045
19.62, 0.0526125
19.65, 0.0510353
19.68, 0.0506382
19.71, 0.0510129
19.74, 0.0511085
19.77, 0.049783
19.8, 0.0481977
19.83, 0.0480539
19.86, 0.0488162
19.89, 0.0483331
19.92, 0.0449291
19.95, 0.0427816
19.98, 0.0432022
20.01, 0.0431132
20.04, 0.0436164
20.07, 0.0454283
20.1, 0.0461187
20.13, 0.0457183
20.16, 0.0455746
20.19, 0.0465304
20.22, 0.0484056
20.25, 0.0502611
20.28, 0.0510909
20.31, 0.0509147
20.34, 0.050767
20.37, 0.0510101
20.4, 0.0510735
20.43, 0.0496498
20.46, 0.0481816
20.49, 0.0482125
20.52, 0.0484126
20.55, 0.0483369
20.58, 0.0483334
20.61, 0.0483327
20.64, 0.0483358
20.67, 0.0484166
20.7, 0.0482107
20.73, 0.0481637
20.76, 0.0496769
20.79, 0.0510079
20.82, 0.0508338
20.85, 0.0516141
20.88, 0.053618
20.91, 0.0554565
20.94, 0.0561592
20.97, 0.0559811
21, 0.0559736
21.03, 0.0559114
21.06, 0.0558928
21.09, 0.0565127
21.12, 0.055304
21.15, 0.0516706
21.18, 0.0505804
21.21, 0.0508047
21.24, 0.0490649
21.27, 0.0480562
21.3, 0.0483376
21.33, 0.0482563
21.36, 0.04861
21.39, 0.0485996
21.42, 0.045556
21.45, 0.0428392
21.48, 0.0430576
21.51, 0.0433959
21.54, 0.0432337
21.57, 0.0432297
21.6, 0.0432667
21.63, 0.0432519
21.66, 0.0432306
21.69, 0.0432945
21.72, 0.0432819
21.75, 0.0429831
21.78, 0.0436637
21.81, 0.0454617
21.84, 0.046064
21.87, 0.0457533
21.9, 0.045742
21.93, 0.0458727
21.96, 0.0457844
21.99, 0.0455214
22.02, 0.046486
22.05, 0.0482327
22.08, 0.0485677
22.11, 0.0482793
22.14, 0.0483204
22.17, 0.0483592
22.2, 0.0483376
22.23, 0.0483383
22.26, 0.0483421
22.29, 0.0483406
22.32, 0.0483405
22.35, 0.0483407
22.38, 0.0483407
22.41, 0.0483411
22.44, 0.0483401
22.47, 0.0483399
22.5, 0.0483457
22.53, 0.0483352
22.56, 0.0483243
22.59, 0.0484017
22.62, 0.0483116
22.65, 0.0480762
22.68, 0.0491314
22.71, 0.0508436
22.74, 0.0510957
22.77, 0.0508186
22.8, 0.0508701
22.83, 0.0509027
22.86, 0.0508811
22.89, 0.0508827
22.92, 0.0508872
22.95, 0.0508843
22.98, 0.0508812
23.01, 0.050895
23.04, 0.0508855
23.07, 0.0508326
23.1, 0.0509903
23.13, 0.0509749
23.16, 0.0497617
23.19, 0.0477267
23.22, 0.0460134
23.25, 0.0458431
23.28, 0.0456406
23.31, 0.0438714
23.34, 0.0429528
23.37, 0.0432584
23.4, 0.0433599
23.43, 0.0431169
23.46, 0.0431729
23.49, 0.044449
23.52, 0.0464425
23.55, 0.048105
23.58, 0.0485148
23.61, 0.0483266
23.64, 0.0483802
23.67, 0.0481416
23.7, 0.0483907
23.73, 0.0501079
23.76, 0.0511486
23.79, 0.05091
23.82, 0.0508432
23.85, 0.0508711
23.88, 0.0508448
23.91, 0.0511247
23.94, 0.050634
23.97, 0.0488663
24, 0.0479489
24.03, 0.0484042
24.06, 0.0489205
24.09, 0.046821
24.12, 0.0433829
24.15, 0.0427959
24.18, 0.0434268
24.21, 0.0433427
24.24, 0.0428691
24.27, 0.0436622
24.3, 0.0456422
24.33, 0.0447834
24.36, 0.0432484
24.39, 0.0448979
24.42, 0.0462112
24.45, 0.0458166
24.48, 0.0454477
24.51, 0.0463851
24.54, 0.0481454
24.57, 0.0485835
24.6, 0.0482836
24.63, 0.0483019
24.66, 0.0484096
24.69, 0.0483061
24.72, 0.0481343
24.75, 0.0490436
24.78, 0.05088
24.81, 0.0525415
24.84, 0.0541212
24.87, 0.0557548
24.9, 0.0573203
24.93, 0.0590753
24.96, 0.06078
24.99, 0.061267
25.02, 0.0610361
25.05, 0.0610477
25.08, 0.0610291
25.11, 0.0610679
25.14, 0.0612973
25.17, 0.0604745
25.2, 0.0586894
25.23, 0.057345
25.26, 0.0549458
25.29, 0.0514621
25.32, 0.050348
25.35, 0.0510212
25.38, 0.0511917
25.41, 0.0498867
25.44, 0.0482901
25.47, 0.048167
25.5, 0.0484088
25.53, 0.0483465
25.56, 0.0483305
25.59, 0.0483363
25.62, 0.0483295
25.65, 0.0484087
25.68, 0.0482691
25.71, 0.0481044
25.74, 0.0493656
25.77, 0.0509588
25.8, 0.0510173
25.83, 0.0509089
25.86, 0.0509078
25.89, 0.0503562
25.92, 0.0519324
25.95, 0.0555064
25.98, 0.0565247
26.01, 0.0558131
26.04, 0.0557529
26.07, 0.0568425
26.1, 0.0587468
26.13, 0.0605923
26.16, 0.0611641
26.19, 0.0610544
26.22, 0.0615591
26.25, 0.05994
26.28, 0.0563749
26.31, 0.0553424
26.34, 0.0562656
26.37, 0.0564464
26.4, 0.0537026
26.43, 0.0506336
26.46, 0.0505226
26.49, 0.051229
26.52, 0.0508794
26.55, 0.0491659
26.58, 0.0480923
26.61, 0.0483019
26.64, 0.0484017
26.67, 0.0483258
26.7, 0.0483346
26.73, 0.0483456
26.76, 0.04834
26.79, 0.04834
26.82, 0.0483411
26.85, 0.0483407
26.88, 0.0483405
26.91, 0.048341
26.94, 0.0483408
26.97, 0.0483393
27, 0.0483429
27.03, 0.0483442
27.06, 0.0483226
27.09, 0.0483577
27.12, 0.0484053
27.15, 0.048123
27.18, 0.0484082
27.21, 0.050136
27.24, 0.0511528
27.27, 0.0509067
27.3, 0.0508257
27.33, 0.050902
27.36, 0.0508898
27.39, 0.05088
27.42, 0.0508859
27.45, 0.0508858
27.48, 0.0508837
27.51, 0.0508854
27.54, 0.0508887
27.57, 0.0508755
27.6, 0.0508827
27.63, 0.0509377
27.66, 0.0507881
27.69, 0.0507774
27.72, 0.051952
27.75, 0.0539638
27.78, 0.0557032
27.81, 0.0560001
27.84, 0.0560531
27.87, 0.0575785
27.9, 0.0596373
27.93, 0.0610497
27.96, 0.0612044
27.99, 0.0610208
28.02, 0.0610597
28.05, 0.0610222
28.08, 0.0611286
28.11, 0.0612132
28.14, 0.0601644
28.17, 0.0582162
28.2, 0.0564255
28.23, 0.055769
28.26, 0.0559761
28.29, 0.0560312
28.32, 0.0559181
28.35, 0.0559421
28.38, 0.0562458
28.41, 0.0555593
28.44, 0.0537619
28.47, 0.0531621
28.5, 0.0534725
28.53, 0.0534831
28.56, 0.053354
28.59, 0.0534414
28.62, 0.0536989
28.65, 0.0527495
28.68, 0.0509977
28.71, 0.0505853
28.74, 0.051063
28.77, 0.0510851
28.8, 0.0496173
28.83, 0.0481801
28.86, 0.0482219
28.89, 0.0483968
28.92, 0.0483415
28.95, 0.0484003
28.98, 0.0481695
29.01, 0.0482782
29.04, 0.0498991
29.07, 0.0511249
29.1, 0.0509501
29.13, 0.0508172
29.16, 0.050898
29.19, 0.0508933
29.22, 0.0508796
29.25, 0.0508855
29.28, 0.0508862
29.31, 0.0508836
29.34, 0.0508847
29.37, 0.0508907
29.4, 0.0508743
29.43, 0.0508738
29.46, 0.0509605
29.49, 0.0507917
29.52, 0.050652
29.55, 0.0520458
29.58, 0.0535029
29.61, 0.0533285
29.64, 0.0541908
29.67, 0.055963
29.7, 0.0562428
29.73, 0.0557922
29.76, 0.0558693
29.79, 0.0571325
29.82, 0.0591089
29.85, 0.0608003
29.88, 0.0612103
29.91, 0.0610713
29.94, 0.0612184
29.97, 0.0603834
30, 0.0584773
30.03, 0.0566043
30.06, 0.0557832
30.09, 0.0559476
30.12, 0.0560193
30.15, 0.0559611
30.18, 0.0559679
30.21, 0.0559832
30.24, 0.0559675
30.27, 0.0559506
30.3, 0.0560465
30.33, 0.0559558
30.36, 0.0556294
30.39, 0.0568475
30.42, 0.0585019
30.45, 0.0572124
30.48, 0.0556957
30.51, 0.0559064
30.54, 0.0559242
30.57, 0.0560958
30.6, 0.0564346
30.63, 0.0539709
30.66, 0.0507404
30.69, 0.0505387
30.72, 0.0510299
30.75, 0.0508941
30.78, 0.0508537
30.81, 0.0508943
30.84, 0.0508874
30.87, 0.0508824
30.9, 0.0508855
30.93, 0.0508853
30.96, 0.0508847
30.99, 0.050885
31.02, 0.050885
31.05, 0.0508848
31.08, 0.0508849
31.11, 0.0508857
31.14, 0.0508835
31.17, 0.0508835
31.2, 0.0508951
31.23, 0.0508721
31.26, 0.0508542
31.29, 0.0510121
31.32, 0.0508021
31.35, 0.0503699
31.38, 0.0526024
31.41, 0.0559702
31.44, 0.0563715
31.47, 0.0558359
31.5, 0.0559508
31.53, 0.0560069
31.56, 0.0559663
31.59, 0.055972
31.62, 0.0559668
31.65, 0.0559804
31.68, 0.0560091
31.71, 0.0558627
31.74, 0.0559887
31.77, 0.0565183
31.8, 0.0546413
31.83, 0.0511322
31.86, 0.0504236
31.89, 0.0510053
31.92, 0.0509278
31.95, 0.0508489
31.98, 0.0508898
32.01, 0.0508853
32.04, 0.0508976
32.07, 0.0508808
32.1, 0.0508131
32.13, 0.0510562
32.16, 0.0509597
32.19, 0.0493513
32.22, 0.0481056
32.25, 0.0482707
32.28, 0.0484091
32.31, 0.0483282
32.34, 0.0483321
32.37, 0.048346
32.4, 0.0483403
32.43, 0.0483398
32.46, 0.0483411
32.49, 0.0483407
32.52, 0.0483406
32.55, 0.0483407
32.58, 0.0483407
32.61, 0.0483407
32.64, 0.0483407
32.67, 0.0483407
32.7, 0.0483407
32.73, 0.0483407
32.76, 0.0483406
32.79, 0.048341
32.82, 0.0483407
32.85, 0.0483393
32.88, 0.0483434
32.91, 0.0483433
32.94, 0.0483218
32.97, 0.0483654
33, 0.048397
33.03, 0.0481028
33.06, 0.0485057
33.09, 0.0502713
33.12, 0.0511733
33.15, 0.0508829
33.18, 0.050759
33.21, 0.0510572
33.24, 0.0510022
33.27, 0.0494407
33.3, 0.0481256
33.33, 0.0482529
33.36, 0.048411
33.39, 0.0483305
33.42, 0.0483308
33.45, 0.048346
33.48, 0.0483405
33.51, 0.0483398
33.54, 0.0483411
33.57, 0.0483407
33.6, 0.0483407
33.63, 0.0483406
33.66, 0.0483405
33.69, 0.048342
33.72, 0.0483395
33.75, 0.0483361
33.78, 0.0483563
33.81, 0.0483358
33.84, 0.0482687
33.87, 0.0485145
33.9, 0.048409
33.93, 0.0467944
33.96, 0.0455565
33.99, 0.0457259
34.02, 0.0458829
34.05, 0.0457638
34.08, 0.0457261
34.11, 0.0460278
34.14, 0.0456932
34.17, 0.0439474
34.2, 0.0429808
34.23, 0.0432395
34.26, 0.0433129
34.29, 0.0432275
34.32, 0.0432403
34.35, 0.0433083
34.38, 0.0431893
34.41, 0.0430908
34.44, 0.0441043
34.47, 0.0460429
34.5, 0.0478573
34.53, 0.0485267
34.56, 0.0483427
34.59, 0.0483745
34.62, 0.0482076
34.65, 0.048213
34.68, 0.0497403
34.71, 0.051088
34.74, 0.0509711
34.77, 0.0508581
34.8, 0.050862
34.83, 0.0507192
34.86, 0.0515339
34.89, 0.0534585
34.92, 0.0554779
34.95, 0.0558508
34.98, 0.0557833
35.01, 0.0588344
35.04, 0.0615132
35.07, 0.0612394
35.1, 0.0609081
35.13, 0.0610918
35.16, 0.0611172
35.19, 0.0609385
35.22, 0.0610862
35.25, 0.0616026
35.28, 0.0596853
35.31, 0.0561884
35.34, 0.055467
35.37, 0.0561822
35.4, 0.0561445
35.43, 0.0549411
35.46, 0.0530142
35.49, 0.0512593
35.52, 0.0506979
35.55, 0.0508927
35.58, 0.0508478
35.61, 0.0510473
35.64, 0.0509458
35.67, 0.0493264
35.7, 0.0480998
35.73, 0.0482758
35.76, 0.0484087
35.79, 0.0483275
35.82, 0.0483322
35.85, 0.0483468
35.88, 0.0483398
35.91, 0.0483361
35.94, 0.0483509
35.97, 0.0483426
36, 0.0482869
36.03, 0.0484418
36.06, 0.0484463
36.09, 0.0472451
36.12, 0.0452607
36.15, 0.0435544
36.18, 0.0430587
36.21, 0.0432723
36.24, 0.0432689
36.27, 0.0432763
36.3, 0.0432537
36.33, 0.0430545
36.36, 0.0437079
36.39, 0.0455034
36.42, 0.0474503
36.45, 0.0484941
36.48, 0.048408
36.51, 0.0482933
36.54, 0.0483442
36.57, 0.0483301
36.6, 0.0483918
36.63, 0.048335
36.66, 0.0480686
36.69, 0.0489955
36.72, 0.0507534
36.75, 0.0511174
36.78, 0.0508254
36.81, 0.0508628
36.84, 0.0509037
36.87, 0.050882
36.9, 0.0508824
36.93, 0.0508864
36.96, 0.0508849
36.99, 0.0508847
37.02, 0.0508851
37.05, 0.050885
37.08, 0.0508846
37.11, 0.0508856
37.14, 0.0508859
37.17, 0.0508801
37.2, 0.0508899
37.23, 0.0509018
37.26, 0.0508256
37.29, 0.0509079
37.32, 0.0511515
37.35, 0.0501301
37.38, 0.0484038
37.41, 0.0481138
37.44, 0.0484243
37.47, 0.04838
37.5, 0.0481834
37.53, 0.0485038
37.56, 0.0487939
37.59, 0.0462178
37.62, 0.0430591
37.65, 0.0429282
37.68, 0.0433986
37.71, 0.0432567
37.74, 0.0432196
37.77, 0.0432673
37.8, 0.0432596
37.83, 0.0432117
37.86, 0.0433012
37.89, 0.0433671
37.92, 0.0427768
37.95, 0.0435675
37.98, 0.0471016
38.01, 0.0488883
38.04, 0.0483409
38.07, 0.0482342
38.1, 0.0483776
38.13, 0.0483467
38.16, 0.0483316
38.19, 0.0483429
38.22, 0.0483416
38.25, 0.04834
38.28, 0.0483408
38.31, 0.0483408
38.34, 0.0483406
38.37, 0.0483407
38.4, 0.0483409
38.43, 0.0483403
38.46, 0.0483404
38.49, 0.0483435
38.52, 0.0483364
38.55, 0.0483335
38.58, 0.0483768
38.61, 0.0483076
38.64, 0.0482104
38.67, 0.0487741
38.7, 0.0482171
38.73, 0.0447636
38.76, 0.0427293
38.79, 0.0432105
38.82, 0.0433036
38.85, 0.0433319
38.88, 0.0434005
38.91, 0.0420522
38.94, 0.0404597
38.97, 0.0403536
39, 0.0418026
39.03, 0.0433258
39.06, 0.0434094
39.09, 0.043185
39.12, 0.0432486
39.15, 0.0432665
39.18, 0.0432479
39.21, 0.0432512
39.24, 0.0432534
39.27, 0.043252
39.3, 0.0432521
39.33, 0.0432523
39.36, 0.0432522
39.39, 0.0432523
39.42, 0.043252
39.45, 0.0432522
39.48, 0.0432532
39.51, 0.0432502
39.54, 0.0432503
39.57, 0.0432662
39.6, 0.043234
39.63, 0.0432109
39.66, 0.0434275
39.69, 0.0431292
39.72, 0.0415703
39.75, 0.0395595
39.78, 0.0381585
39.81, 0.0380191
39.84, 0.0382164
39.87, 0.0381729
39.9, 0.0381388
39.92, 0.038162