File: Benchmarks/PeriodicFFValidation/input_files/PXRD/Structures_Database/sql_24-01-01_10-08-01/COF-66_PXRD.dat
1.25, 0.164115
1.29, 0.161394
1.33, 0.16036
1.37, 0.159104
1.41, 0.156401
1.45, 0.155225
1.49, 0.154458
1.53, 0.152455
1.57, 0.149657
1.61, 0.148726
1.65, 0.148916
1.69, 0.148019
1.73, 0.146991
1.77, 0.146447
1.81, 0.146553
1.85, 0.147294
1.89, 0.148329
1.93, 0.148991
1.97, 0.149537
2.01, 0.152865
2.05, 0.157192
2.09, 0.159527
2.13, 0.160887
2.17, 0.166958
2.21, 0.174102
2.25, 0.174378
2.29, 0.185278
2.33, 0.201715
2.37, 0.208796
2.41, 0.214743
2.45, 0.230622
2.49, 0.254426
2.53, 0.270311
2.57, 0.280124
2.61, 0.304281
2.65, 0.351052
2.69, 0.374525
2.73, 0.417015
2.77, 0.504796
2.81, 0.561059
2.85, 0.599215
2.89, 0.6653
2.93, 0.772531
2.97, 0.841888
3.01, 0.875551
3.05, 0.908641
3.09, 0.907306
3.13, 0.89263
3.17, 0.864078
3.21, 0.781906
3.25, 0.71513
3.29, 0.684912
3.33, 0.646495
3.37, 0.565968
3.41, 0.49094
3.45, 0.45999
3.49, 0.428602
3.53, 0.364045
3.57, 0.294198
3.61, 0.269753
3.65, 0.238588
3.69, 0.200211
3.73, 0.182881
3.77, 0.173904
3.81, 0.160003
3.85, 0.143115
3.89, 0.136881
3.93, 0.133774
3.97, 0.127455
4.01, 0.119473
4.05, 0.115737
4.09, 0.113278
4.13, 0.1088
4.17, 0.105743
4.21, 0.104213
4.25, 0.102242
4.29, 0.0986631
4.33, 0.0968483
4.37, 0.0963274
4.41, 0.0945867
4.45, 0.0916192
4.49, 0.0905999
4.53, 0.0905599
4.57, 0.0864717
4.61, 0.0829239
4.65, 0.0822519
4.69, 0.0824327
4.73, 0.0805499
4.77, 0.0778273
4.81, 0.0763273
4.85, 0.0757096
4.89, 0.0738522
4.93, 0.0713329
4.97, 0.0704836
5.01, 0.0697199
5.05, 0.0690125
5.09, 0.0690759
5.13, 0.0692689
5.17, 0.068785
5.21, 0.0679163
5.25, 0.0678302
5.29, 0.0681284
5.33, 0.0695474
5.37, 0.0722672
5.41, 0.0731981
5.45, 0.0748905
5.49, 0.0795218
5.53, 0.0843105
5.57, 0.0867071
5.61, 0.0915508
5.65, 0.104493
5.69, 0.114897
5.73, 0.120542
5.77, 0.129849
5.81, 0.152784
5.85, 0.169316
5.89, 0.175467
5.93, 0.190528
5.97, 0.203515
6.01, 0.207502
6.05, 0.204841
6.09, 0.19936
6.13, 0.193135
6.17, 0.187341
6.21, 0.18251
6.25, 0.176385
6.29, 0.171273
6.33, 0.17125
6.37, 0.171988
6.41, 0.171225
6.45, 0.170331
6.49, 0.171548
6.53, 0.167061
6.57, 0.158234
6.61, 0.156107
6.65, 0.155227
6.69, 0.147679
6.73, 0.134233
6.77, 0.129173
6.81, 0.12493
6.85, 0.114758
6.89, 0.106749
6.93, 0.104026
6.97, 0.101872
7.01, 0.0948817
7.05, 0.0896534
7.09, 0.0878629
7.13, 0.0862017
7.17, 0.0811579
7.21, 0.0775163
7.25, 0.0761405
7.29, 0.0727102
7.33, 0.0701031
7.37, 0.0688362
7.41, 0.0671626
7.45, 0.0646106
7.49, 0.0625054
7.53, 0.061962
7.57, 0.0623001
7.61, 0.0606704
7.65, 0.0581521
7.69, 0.0574389
7.73, 0.0559548
7.77, 0.0545779
7.81, 0.0547646
7.85, 0.0550831
7.89, 0.0541465
7.93, 0.0523222
7.97, 0.0513086
8.01, 0.0514104
8.05, 0.0509346
8.09, 0.0490903
8.13, 0.0486434
8.17, 0.0489251
8.21, 0.0488593
8.25, 0.0488472
8.29, 0.0488637
8.33, 0.0488577
8.37, 0.0488576
8.41, 0.0488613
8.45, 0.0488542
8.49, 0.0488555
8.53, 0.0488934
8.57, 0.0487669
8.61, 0.0489071
8.65, 0.0498167
8.69, 0.050151
8.73, 0.0500632
8.77, 0.0509166
8.81, 0.0535189
8.85, 0.0551516
8.89, 0.0548154
8.93, 0.0547625
8.97, 0.0548418
9.01, 0.0548131
9.05, 0.0548147
9.09, 0.0548188
9.13, 0.0548159
9.17, 0.0548166
9.21, 0.0548214
9.25, 0.054805
9.29, 0.0548241
9.33, 0.0548698
9.37, 0.0546084
9.41, 0.0551408
9.45, 0.0569568
9.49, 0.0580425
9.53, 0.0587044
9.57, 0.0595999
9.61, 0.0605103
9.65, 0.0609758
9.69, 0.0606437
9.73, 0.0597406
9.77, 0.0594167
9.81, 0.0597284
9.85, 0.0596404
9.89, 0.0580266
9.93, 0.0566255
9.97, 0.055921
10.01, 0.0550125
10.05, 0.054694
10.09, 0.0548669
10.13, 0.0548554
10.17, 0.0542863
10.21, 0.0529013
10.25, 0.051199
10.29, 0.0502225
10.33, 0.0499537
10.37, 0.0500955
10.41, 0.0501418
10.45, 0.0493795
10.49, 0.0487336
10.53, 0.0488483
10.57, 0.0489419
10.61, 0.0486102
10.65, 0.0474705
10.69, 0.0456708
10.73, 0.044964
10.77, 0.0455206
10.81, 0.0463928
10.85, 0.0466868
10.89, 0.0460994
10.93, 0.0452614
10.97, 0.045188
11.01, 0.0454277
11.05, 0.0451358
11.09, 0.0442169
11.13, 0.0440182
11.17, 0.0440546
11.21, 0.0440755
11.25, 0.0449305
11.29, 0.0454214
11.33, 0.0452614
11.37, 0.045243
11.41, 0.0454102
11.45, 0.0450732
11.49, 0.0441641
11.53, 0.0439556
11.57, 0.0442284
11.61, 0.0440518
11.65, 0.0430723
11.69, 0.043194
11.73, 0.0443541
11.77, 0.0452011
11.81, 0.0453534
11.85, 0.0452649
11.89, 0.0452834
11.93, 0.0452696
11.97, 0.0453356
12.01, 0.0452359
12.05, 0.0450856
12.09, 0.0465132
12.13, 0.0479012
12.17, 0.0477111
12.21, 0.0474884
12.25, 0.0480623
12.29, 0.048891
12.33, 0.048918
12.37, 0.0488287
12.41, 0.048862
12.45, 0.0488553
12.49, 0.0488903
12.53, 0.0487862
12.57, 0.0488539
12.61, 0.049723
12.65, 0.0501985
12.69, 0.0500122
12.73, 0.0499674
12.77, 0.0505673
12.81, 0.0515877
12.85, 0.0523966
12.89, 0.0524927
12.93, 0.0524299
12.97, 0.0524243
13.01, 0.0523366
13.05, 0.0529389
13.09, 0.0537891
13.13, 0.0537624
13.17, 0.052616
13.21, 0.0529592
13.25, 0.0548217
13.29, 0.0549407
13.33, 0.0548827
13.37, 0.0546798
13.41, 0.0536699
13.45, 0.0543084
13.49, 0.0546547
13.53, 0.0536468
13.57, 0.0543157
13.61, 0.0549917
13.65, 0.0548003
13.69, 0.054794
13.73, 0.0548367
13.77, 0.0548028
13.81, 0.0547997
13.85, 0.0549366
13.89, 0.0545095
13.93, 0.0536138
13.97, 0.0534316
14.01, 0.0541498
14.05, 0.0548893
14.09, 0.0548538
14.13, 0.0547889
14.17, 0.0548247
14.21, 0.0548175
14.25, 0.0548154
14.29, 0.0548175
14.33, 0.0548169
14.37, 0.0548169
14.41, 0.054817
14.45, 0.0548169
14.49, 0.0548169
14.53, 0.054817
14.57, 0.0548169
14.61, 0.0548169
14.65, 0.0548173
14.69, 0.0548158
14.73, 0.0548182
14.77, 0.0548203
14.81, 0.0547989
14.85, 0.0548526
14.89, 0.0548298
14.93, 0.0545639
14.97, 0.0556711
15.01, 0.057311
15.05, 0.0573043
15.09, 0.0571385
15.13, 0.0572113
15.17, 0.0571988
15.21, 0.0572334
15.25, 0.057112
15.29, 0.0572262
15.33, 0.05815
15.37, 0.0584076
15.41, 0.0585085
15.45, 0.059441
15.49, 0.0597022
15.53, 0.0595464
15.57, 0.0595814
15.61, 0.0596097
15.65, 0.0595228
15.69, 0.0596319
15.73, 0.0598093
15.77, 0.0582835
15.81, 0.0571423
15.85, 0.0582332
15.89, 0.0593367
15.93, 0.059596
15.97, 0.0596025
16.01, 0.0603838
16.05, 0.0614456
16.09, 0.0620174
16.13, 0.0619618
16.17, 0.0621157
16.21, 0.0615911
16.25, 0.0607733
16.29, 0.0616696
16.33, 0.0617048
16.37, 0.0606639
16.41, 0.060612
16.45, 0.061437
16.49, 0.062066
16.53, 0.0619812
16.57, 0.0619443
16.61, 0.0619752
16.65, 0.0619664
16.69, 0.0619659
16.73, 0.0619675
16.77, 0.0619668
16.81, 0.0619669
16.85, 0.061967
16.89, 0.061967
16.93, 0.061967
16.97, 0.061967
17.01, 0.061967
17.05, 0.061967
17.09, 0.061967
17.13, 0.061967
17.17, 0.0619669
17.21, 0.0619669
17.25, 0.0619672
17.29, 0.0619665
17.33, 0.0619672
17.37, 0.0619693
17.41, 0.0619581
17.45, 0.0619796
17.49, 0.0619873
17.53, 0.0618299
17.57, 0.062304
17.61, 0.0631604
17.65, 0.0631113
17.69, 0.0636008
17.73, 0.0644311
17.77, 0.0644005
17.81, 0.0642927
17.85, 0.0644051
17.89, 0.0643779
17.93, 0.0636588
17.97, 0.0626476
18.01, 0.0619226
18.05, 0.0618421
18.09, 0.0624503
18.13, 0.0634213
18.17, 0.064262
18.21, 0.0645507
18.25, 0.0640055
18.29, 0.063149
18.33, 0.0630402
18.37, 0.0633551
18.41, 0.0629703
18.45, 0.0619365
18.49, 0.0631732
18.53, 0.0646126
18.57, 0.0643712
18.61, 0.0642979
18.65, 0.0643708
18.69, 0.0643483
18.73, 0.0643493
18.77, 0.064346
18.81, 0.0643589
18.85, 0.0643615
18.89, 0.0642632
18.93, 0.0645937
18.97, 0.0655779
19.01, 0.0666066
19.05, 0.0664309
19.09, 0.0653147
19.13, 0.0644504
19.17, 0.0642657
19.21, 0.0643899
19.25, 0.0643581
19.29, 0.0642174
19.33, 0.0647861
19.37, 0.0655922
19.41, 0.0655665
19.45, 0.0656266
19.49, 0.0653517
19.53, 0.0644335
19.57, 0.0642071
19.61, 0.0644909
19.65, 0.0643177
19.69, 0.0633085
19.73, 0.063552
19.77, 0.0644582
19.81, 0.0643931
19.85, 0.0643186
19.89, 0.0643503
19.93, 0.064348
19.97, 0.064422
20.01, 0.0640644
20.05, 0.0629706
20.09, 0.0619028
20.13, 0.0631102
20.17, 0.0645587
20.21, 0.0643637
20.25, 0.0645348
20.29, 0.0636803
20.33, 0.0618944
20.37, 0.0616307
20.41, 0.0629894
20.45, 0.0646564
20.49, 0.0654593
20.53, 0.0657116
20.57, 0.0652569
20.61, 0.0643653
20.65, 0.0641157
20.69, 0.0649362
20.73, 0.0655116
20.77, 0.0645821
20.81, 0.0641863
20.85, 0.0644173
20.89, 0.0643806
20.93, 0.0640854
20.97, 0.0651084
21.01, 0.0668015
21.05, 0.0668579
21.09, 0.0666673
21.13, 0.0667469
21.17, 0.0667379
21.21, 0.0667296
21.25, 0.0667349
21.29, 0.0667337
21.33, 0.0667334
21.37, 0.0667339
21.41, 0.0667335
21.45, 0.0667331
21.49, 0.0667361
21.53, 0.0667293
21.57, 0.0667306
21.61, 0.0667686
21.65, 0.0666413
21.69, 0.066783
21.73, 0.0676947
21.77, 0.0680177
21.81, 0.0679436
21.85, 0.067989
21.89, 0.0672094
21.93, 0.0666093
21.97, 0.0667343
22.01, 0.0667453
22.05, 0.0667523
22.09, 0.0667062
22.13, 0.0666415
22.17, 0.0673756
22.21, 0.0680455
22.25, 0.0679401
22.29, 0.067855
22.33, 0.0680606
22.37, 0.0678475
22.41, 0.0668123
22.45, 0.0673283
22.49, 0.0678234
22.53, 0.0667936
22.57, 0.0673306
22.61, 0.0680998
22.65, 0.0679213
22.69, 0.0678687
22.73, 0.0680374
22.77, 0.067811
22.81, 0.0669083
22.85, 0.0665035
22.89, 0.0670102
22.93, 0.0678875
22.97, 0.0680995
23.01, 0.0675715
23.05, 0.0666224
23.09, 0.0657151
23.13, 0.0654192
23.17, 0.065612
23.21, 0.0656089
23.25, 0.0647837
23.29, 0.0642378
23.33, 0.0643522
23.37, 0.0643075
23.41, 0.0645491
23.45, 0.0641032
23.49, 0.0622823
23.53, 0.0615851
23.57, 0.0623668
23.61, 0.0631596
23.65, 0.062396
23.69, 0.0618073
23.73, 0.0619866
23.77, 0.0619912
23.81, 0.0619266
23.85, 0.0620173
23.89, 0.0620203
23.93, 0.0612396
23.97, 0.0605663
24.01, 0.0608056
24.05, 0.0617082
24.09, 0.0620976
24.13, 0.0619287
24.17, 0.0619198
24.21, 0.0621931
24.25, 0.0614711
24.29, 0.0596389
24.33, 0.0585707
24.37, 0.0583374
24.41, 0.0583952
24.45, 0.058378
24.49, 0.0584763
24.53, 0.0582337
24.57, 0.0573201
24.61, 0.0563285
24.65, 0.0559219
24.69, 0.0560118
24.73, 0.0559901
24.77, 0.0561143
24.81, 0.0558597
24.85, 0.0549402
24.89, 0.0547091
24.93, 0.0548495
24.97, 0.0548178
25.01, 0.0548111
25.05, 0.0548198
25.09, 0.0548163
25.13, 0.0548153
25.17, 0.0548235
25.21, 0.0548058
25.25, 0.0548078
25.29, 0.0549109
25.33, 0.0545274
25.37, 0.0535507
25.41, 0.0526215
25.45, 0.0523411
25.49, 0.0524539
25.53, 0.0524433
25.57, 0.0524036
25.61, 0.0524883
25.65, 0.0524366
25.69, 0.0516935
25.73, 0.0506225
25.77, 0.0500241
25.81, 0.050108
25.85, 0.0494704
25.89, 0.0486858
25.93, 0.0488062
25.97, 0.0496484
26.01, 0.0502596
26.05, 0.0499915
26.09, 0.0490801
26.13, 0.0487518
26.17, 0.0488708
26.21, 0.0488464
26.25, 0.0489795
26.29, 0.0485437
26.33, 0.0476642
26.37, 0.0475918
26.41, 0.0477013
26.45, 0.0476615
26.49, 0.0476637
26.53, 0.0476697
26.57, 0.0476651
26.61, 0.0476662
26.65, 0.0476762
26.69, 0.047642
26.73, 0.047682
26.77, 0.047777
26.81, 0.0470989
26.85, 0.0463752
26.89, 0.0464491
26.93, 0.0465115
26.97, 0.0464455
27.01, 0.046478
27.05, 0.0465955
27.09, 0.0459909
27.13, 0.045197
27.17, 0.0452199
27.21, 0.0454387
27.25, 0.0450165
27.29, 0.0441254
27.33, 0.0440076
27.37, 0.0441238
27.41, 0.0440896
27.45, 0.0440958
27.49, 0.0440625
27.53, 0.0441404
27.57, 0.0441534
27.61, 0.0433435
27.65, 0.0427747
27.69, 0.0429045
27.73, 0.0429189
27.77, 0.0428911
27.81, 0.0429018
27.85, 0.0429009
27.89, 0.0428996
27.93, 0.0429004
27.97, 0.0429002
28.01, 0.0429002
28.05, 0.0429003
28.09, 0.0429002
28.13, 0.0428999
28.17, 0.0429014
28.21, 0.0428984
28.25, 0.0428982
28.29, 0.0429173
28.33, 0.0428585
28.37, 0.0429125
28.41, 0.0431195
28.45, 0.0419253
28.49, 0.040272
28.53, 0.0402819
28.57, 0.041945
28.61, 0.043122
28.65, 0.0429095
28.69, 0.0428591
28.73, 0.0429183
28.77, 0.0428972
28.81, 0.0428945
28.85, 0.0429187
28.89, 0.0428709
28.93, 0.0428725
28.97, 0.043157
29.01, 0.0421691
29.05, 0.0404599
29.09, 0.0403853
29.13, 0.0405914
29.17, 0.0404943
29.21, 0.0404926
29.25, 0.0406387
29.29, 0.0402416
29.33, 0.0393395
29.37, 0.0391186
29.41, 0.0398205
29.45, 0.0405705
29.49, 0.0405319
29.53, 0.0406185
29.57, 0.040284
29.61, 0.0393725
29.65, 0.0393584
29.69, 0.038982
29.73, 0.0380966
29.77, 0.038066
29.81, 0.038172
29.85, 0.0381226
29.89, 0.0381244
29.93, 0.0381789
29.97, 0.0380391
30.01, 0.0381284
30.05, 0.039127
30.09, 0.0389945
30.13, 0.0380378
30.17, 0.0380513
30.21, 0.0382951
30.25, 0.0378886
30.29, 0.0369919
30.33, 0.0368414
30.37, 0.037006
30.41, 0.0369226
30.45, 0.0367957
30.49, 0.0376133
30.53, 0.0380613
30.57, 0.0370774
30.61, 0.0367763
30.65, 0.0370604
30.69, 0.0369387
30.73, 0.036051
30.77, 0.0356257
30.81, 0.0357696
30.85, 0.0357611
30.89, 0.0357422
30.93, 0.0357523
30.97, 0.0357504
31.01, 0.0357497
31.05, 0.0357503
31.09, 0.0357502
31.13, 0.0357502
31.17, 0.0357502
31.21, 0.0357502
31.25, 0.0357502
31.29, 0.0357502
31.33, 0.0357502
31.37, 0.0357502
31.41, 0.0357502
31.45, 0.0357502
31.49, 0.0357502
31.53, 0.0357502
31.57, 0.0357502
31.61, 0.0357502
31.65, 0.0357502
31.69, 0.0357502
31.73, 0.03575
31.77, 0.0357503
31.81, 0.0357507
31.85, 0.0357479
31.89, 0.0357538
31.93, 0.0357547
31.97, 0.0357152
32.01, 0.0358331
32.05, 0.0357325
32.09, 0.0348347
32.13, 0.0344586
32.17, 0.0345494
32.21, 0.0344894
32.25, 0.0351816
32.29, 0.035952
32.33, 0.035786
32.37, 0.034786
32.41, 0.0348066
32.45, 0.0358661
32.49, 0.0360615
32.53, 0.0343688
32.57, 0.0334214
32.61, 0.0345008
32.65, 0.0339445
32.69, 0.0331894
32.73, 0.0333753
32.77, 0.0333918
32.81, 0.0333554
32.85, 0.0333675
32.89, 0.0333641
32.93, 0.0333867
32.97, 0.0333247
33.01, 0.0333564
33.05, 0.0336533
33.09, 0.0323812
33.13, 0.0309493
33.17, 0.0319002
33.21, 0.0322772
33.25, 0.0322766
33.29, 0.0332272
33.33, 0.0343728
33.37, 0.0342878
33.41, 0.0333306
33.45, 0.033259
33.49, 0.0335183
33.53, 0.0332094
33.57, 0.0322966
33.61, 0.0320593
33.65, 0.0322298
33.69, 0.0321794
33.73, 0.0320204
33.77, 0.0327053
33.81, 0.0333638
33.85, 0.032505
33.89, 0.031406
33.93, 0.0309109
33.97, 0.0309732
34.01, 0.031
34.05, 0.0309775
34.09, 0.0309839
34.13, 0.0309841
34.17, 0.0309836
34.21, 0.0309828
34.25, 0.0309822
34.29, 0.030992
34.33, 0.030965
34.37, 0.0309825
34.41, 0.0310983
34.45, 0.0305447
34.49, 0.0296952
34.53, 0.0296512
34.57, 0.0304541
34.61, 0.0310919
34.65, 0.0309989
34.69, 0.0309257
34.73, 0.0310849
34.77, 0.0309326
34.81, 0.0300185
34.85, 0.0297084
34.89, 0.0297616
34.93, 0.0297096
34.97, 0.030636
35.01, 0.0307917
35.05, 0.029788
35.09, 0.0296968
35.13, 0.0298353
35.17, 0.029785
35.21, 0.029788
35.25, 0.0297946
35.29, 0.0297911
35.33, 0.0297917
35.37, 0.0297918
35.41, 0.0297922
35.45, 0.0297915
35.49, 0.0297898
35.53, 0.0297997
35.57, 0.0297801
35.61, 0.0297753
35.65, 0.0299117
35.69, 0.0294814
35.73, 0.0285879
35.77, 0.0284179
35.81, 0.0290898
35.85, 0.0299047
35.89, 0.0299424
35.93, 0.02898
35.97, 0.0287494
36.01, 0.0297488
36.05, 0.0299113
36.09, 0.029717
36.13, 0.0298182
36.17, 0.0299313
36.21, 0.0290969
36.25, 0.028678
36.29, 0.0296684
36.33, 0.0300462
36.37, 0.0294076
36.41, 0.0285853
36.45, 0.028536
36.49, 0.0286336
36.53, 0.0285917
36.57, 0.0285899
36.61, 0.0286448
36.65, 0.0285148
36.69, 0.0285706
36.73, 0.0295629
36.77, 0.0294918
36.81, 0.0285292
36.85, 0.0285342
36.89, 0.0286408
36.93, 0.0285906
36.97, 0.0285983
37.01, 0.0286023
37.05, 0.0285997
37.09, 0.0286
37.13, 0.028598
37.17, 0.028608
37.21, 0.0285904
37.25, 0.028578
37.29, 0.0287264
37.33, 0.0283183
37.37, 0.027427
37.41, 0.0273233
37.45, 0.0274527
37.49, 0.0273959
37.53, 0.027367
37.57, 0.0275775
37.61, 0.0271168
37.65, 0.0262108
37.69, 0.0270946
37.73, 0.0270271
37.77, 0.0262456
37.81, 0.0280109
37.85, 0.0288291
37.89, 0.0286293
37.93, 0.028753
37.97, 0.0271295
38.01, 0.0261901
38.05, 0.0273807
38.09, 0.028402
38.13, 0.0286448
38.17, 0.0286173
38.21, 0.0287044
38.25, 0.027929
38.29, 0.0273929
38.33, 0.0274705
38.37, 0.0263206
38.41, 0.0270166
38.45, 0.0285963
38.49, 0.0268463
38.53, 0.0259322
38.57, 0.0262276
38.61, 0.0261398
38.65, 0.0270541
38.69, 0.0271909
38.73, 0.0262197
38.77, 0.0267784
38.81, 0.0283239
38.85, 0.0283727
38.89, 0.0263454
38.93, 0.0274798
38.97, 0.0284165
39.01, 0.0263511
39.05, 0.0259702
39.09, 0.0263135
39.13, 0.0262066
39.17, 0.0261848
39.21, 0.0263017
39.25, 0.0261034
39.29, 0.0260377
39.33, 0.0279214
39.37, 0.0282102
39.41, 0.0262089
39.45, 0.0260337
39.49, 0.0262843
39.53, 0.0262232
39.57, 0.0262726
39.61, 0.0259076
39.65, 0.0268351
39.69, 0.0285869
39.73, 0.0271535
39.77, 0.0258932
39.81, 0.0262468
39.85, 0.0262477
39.89, 0.0262259
39.93, 0.026175
39.97, 0.026152
40.01, 0.0269521
40.05, 0.0275335
40.09, 0.0274058
40.13, 0.0273889
40.17, 0.0274182
40.21, 0.0274063
40.25, 0.027406
40.29, 0.027418
40.33, 0.0273911
40.37, 0.0274006
40.41, 0.0275355
40.45, 0.0269925
40.49, 0.0261657
40.53, 0.0261618
40.57, 0.0262513
40.61, 0.0262062
40.65, 0.0262111
40.69, 0.0262505
40.73, 0.0261407
40.77, 0.0262332
40.81, 0.0270915
40.85, 0.0276491
40.89, 0.0272493
40.93, 0.0263332
40.97, 0.0261977
41.01, 0.0260796
41.05, 0.0261609
41.09, 0.0281141
41.13, 0.0280675
41.17, 0.0260243
41.21, 0.0258202
41.25, 0.0277197
41.29, 0.0283977
41.33, 0.0264196
41.37, 0.0258437
41.41, 0.0266609
41.45, 0.0274254
41.49, 0.0274342
41.53, 0.0274835
41.57, 0.0272824
41.61, 0.0263727
41.65, 0.0259795
41.69, 0.026532
41.73, 0.0273915
41.77, 0.0274843
41.81, 0.0273764
41.85, 0.0274126
41.89, 0.0274123
41.93, 0.027404
41.97, 0.0274129
42.01, 0.0274122
42.05, 0.0273739
42.09, 0.0274949
42.13, 0.0273753
42.17, 0.0264766
42.21, 0.0260932
42.25, 0.0262389
42.29, 0.0262215
42.33, 0.0262323
42.37, 0.0261702
42.41, 0.0262098
42.45, 0.0269285
42.49, 0.0280641
42.53, 0.0285808
42.57, 0.0277295
42.61, 0.0266274
42.65, 0.0261764
42.69, 0.0262341
42.73, 0.025945
42.77, 0.0270516
42.81, 0.0286314
42.85, 0.0278084
42.89, 0.0271198
42.93, 0.0275857
42.97, 0.0284597
43.01, 0.0289515
43.05, 0.0279531
43.09, 0.0262237
43.13, 0.0261009
43.17, 0.0261799
43.21, 0.0263092
43.25, 0.0272295
43.29, 0.0275308
43.33, 0.0273729
43.37, 0.0274018
43.41, 0.0274502
43.45, 0.0273133
43.49, 0.0274589
43.53, 0.028371
43.57, 0.0286922
43.61, 0.0286185
43.65, 0.0286632
43.69, 0.027884
43.73, 0.0272811
43.77, 0.0274094
43.81, 0.0274376
43.85, 0.0273709
43.89, 0.0274393
43.93, 0.0275027
43.97, 0.0267602
44.01, 0.0261035
44.05, 0.0262062
44.09, 0.0262345
44.13, 0.026224
44.17, 0.0262076
44.21, 0.0261455
44.25, 0.0266366
44.29, 0.0277385
44.33, 0.0285992
44.37, 0.0279233
44.41, 0.027292
44.45, 0.0274074
44.49, 0.0272458
44.53, 0.0281037
44.57, 0.0284384
44.61, 0.0265624
44.65, 0.0259496
44.69, 0.0263095
44.73, 0.0262321
44.77, 0.0260416
44.81, 0.026734
44.85, 0.0273927
44.89, 0.0264857
44.93, 0.0260638
44.97, 0.0262515
45.01, 0.0262243
45.05, 0.0262078
45.09, 0.0262198
45.13, 0.0262167
45.17, 0.0262163
45.21, 0.026217
45.25, 0.0262168
45.29, 0.0262168
45.33, 0.0262166
45.37, 0.0262172
45.41, 0.0262169
45.45, 0.0262137
45.49, 0.0262257
45.53, 0.02621
45.57, 0.0261811
45.61, 0.0263686
45.65, 0.0259611
45.69, 0.0250441
45.73, 0.0256902
45.77, 0.0263767
45.81, 0.0262091
45.85, 0.0261954
45.89, 0.0262232
45.93, 0.0262209
45.97, 0.0262299
46.01, 0.0261377
46.05, 0.0263801
46.09, 0.0262561
46.13, 0.0243529
46.17, 0.0241377
46.21, 0.0250182
46.25, 0.0240258
46.29, 0.0241621
46.33, 0.0253746
46.37, 0.0261618
46.41, 0.0263968
46.45, 0.0258499
46.49, 0.0249892
46.53, 0.0248559
46.57, 0.0255574
46.61, 0.0263407
46.65, 0.0263271
46.69, 0.0254795
46.73, 0.0249368
46.77, 0.0250259
46.81, 0.0248859
46.85, 0.0255753
46.89, 0.0261879
46.93, 0.0252448
46.97, 0.0249248
47.01, 0.024978
47.05, 0.024962
47.09, 0.0260375
47.13, 0.0256487
47.17, 0.0237265
47.21, 0.0234054
47.25, 0.025215
47.29, 0.026079
47.33, 0.0241368
47.37, 0.0234091
47.41, 0.0242961
47.45, 0.0250257
47.49, 0.0242151
47.53, 0.0236773
47.57, 0.0238564
47.61, 0.0238479
47.65, 0.0238235
47.69, 0.0238357
47.73, 0.0238335
47.77, 0.023836
47.81, 0.0238254
47.85, 0.0238379
47.89, 0.0238715
47.93, 0.0236869
47.97, 0.0240497
48.01, 0.0249928
48.05, 0.0244041
48.09, 0.0236767
48.13, 0.0238346
48.17, 0.0238587
48.21, 0.0238218
48.25, 0.0238353
48.29, 0.0238345
48.33, 0.0238327
48.37, 0.0238336
48.41, 0.0238335
48.45, 0.0238334
48.49, 0.0238335
48.53, 0.0238334
48.57, 0.0238334
48.61, 0.0238334
48.65, 0.0238334
48.69, 0.0238334
48.73, 0.0238334
48.77, 0.0238334
48.81, 0.0238334
48.85, 0.0238334
48.89, 0.0238334
48.93, 0.0238334
48.97, 0.0238334
49.01, 0.0238334
49.05, 0.0238334
49.09, 0.0238334
49.13, 0.0238334
49.17, 0.0238334
49.21, 0.0238334
49.25, 0.0238334
49.29, 0.0238334
49.33, 0.0238334
49.37, 0.0238334
49.41, 0.0238334
49.45, 0.0238334
49.49, 0.0238334
49.53, 0.0238334
49.57, 0.0238334
49.61, 0.0238334
49.65, 0.0238334