File: Benchmarks/PeriodicFFValidation/input_files/PXRD/Structures_Database/ctn_33-11-02_29-01-02_None/COF-103_PXRD.dat
2.04, 0.0606631
2.07, 0.0607954
2.1, 0.0599858
2.13, 0.0592698
2.16, 0.0594026
2.19, 0.0594106
2.22, 0.0593854
2.25, 0.0594025
2.28, 0.0593925
2.31, 0.0593751
2.34, 0.0594945
2.37, 0.0591022
2.4, 0.0579914
2.43, 0.0569826
2.46, 0.0567899
2.49, 0.0568934
2.52, 0.0568657
2.55, 0.0568707
2.58, 0.0568428
2.61, 0.0569438
2.64, 0.0567667
2.67, 0.055769
2.7, 0.0546516
2.73, 0.0542414
2.76, 0.0543598
2.79, 0.0543443
2.82, 0.0543361
2.85, 0.0543425
2.88, 0.0543403
2.91, 0.0543406
2.94, 0.0543407
2.97, 0.0543406
3, 0.0543407
3.03, 0.0543407
3.06, 0.0543407
3.09, 0.0543407
3.12, 0.0543407
3.15, 0.0543407
3.18, 0.0543407
3.21, 0.0543407
3.24, 0.0543407
3.27, 0.0543407
3.3, 0.0543407
3.33, 0.0543407
3.36, 0.0543407
3.39, 0.0543407
3.42, 0.0543407
3.45, 0.0543407
3.48, 0.0543407
3.51, 0.0543407
3.54, 0.0543407
3.57, 0.0543407
3.6, 0.0543407
3.63, 0.0543407
3.66, 0.0543407
3.69, 0.0543407
3.72, 0.0543407
3.75, 0.0543407
3.78, 0.0543407
3.81, 0.0543407
3.84, 0.0543407
3.87, 0.0543407
3.9, 0.0543407
3.93, 0.0543407
3.96, 0.0543407
3.99, 0.0543407
4.02, 0.0543407
4.05, 0.0543407
4.08, 0.0543407
4.11, 0.0543407
4.14, 0.0543407
4.17, 0.0543407
4.2, 0.0543407
4.23, 0.0543407
4.26, 0.0543407
4.29, 0.0543407
4.32, 0.0543407
4.35, 0.0543407
4.38, 0.0543407
4.41, 0.0543407
4.44, 0.0543407
4.47, 0.0543407
4.5, 0.0543407
4.53, 0.0543407
4.56, 0.0543407
4.59, 0.0543407
4.62, 0.0543407
4.65, 0.0543407
4.68, 0.0543407
4.71, 0.0543407
4.74, 0.0543407
4.77, 0.0543407
4.8, 0.0543407
4.83, 0.0543407
4.86, 0.0543407
4.89, 0.0543407
4.92, 0.0543407
4.95, 0.0543407
4.98, 0.0543407
5.01, 0.0543407
5.04, 0.0543407
5.07, 0.0543407
5.1, 0.0543407
5.13, 0.0543407
5.16, 0.0543407
5.19, 0.0543407
5.22, 0.0543407
5.25, 0.0543407
5.28, 0.0543407
5.31, 0.0543407
5.34, 0.0543407
5.37, 0.0543407
5.4, 0.0543407
5.43, 0.0543407
5.46, 0.0543407
5.49, 0.0543407
5.52, 0.0543407
5.55, 0.0543407
5.58, 0.0543407
5.61, 0.0543407
5.64, 0.0543407
5.67, 0.0543407
5.7, 0.0543407
5.73, 0.0543407
5.76, 0.0543407
5.79, 0.0543407
5.82, 0.0543407
5.85, 0.0543407
5.88, 0.0543407
5.91, 0.0543407
5.94, 0.0543407
5.97, 0.0543407
6, 0.0543407
6.03, 0.0543407
6.06, 0.0543407
6.09, 0.0543407
6.12, 0.0543407
6.15, 0.0543407
6.18, 0.0543407
6.21, 0.0543407
6.24, 0.0543407
6.27, 0.0543407
6.3, 0.0543406
6.33, 0.0543407
6.36, 0.0543407
6.39, 0.0543402
6.42, 0.0543424
6.45, 0.0543374
6.48, 0.05434
6.51, 0.0543655
6.54, 0.0542468
6.57, 0.0545511
6.6, 0.0556194
6.63, 0.0566628
6.66, 0.0570277
6.69, 0.0566917
6.72, 0.0569301
6.75, 0.0589569
6.78, 0.0596578
6.81, 0.0592629
6.84, 0.0594431
6.87, 0.0603835
6.9, 0.0614844
6.93, 0.0621397
6.96, 0.0634751
6.99, 0.0665327
7.02, 0.0676376
7.05, 0.0696413
7.08, 0.0739544
7.11, 0.0777811
7.14, 0.0811678
7.17, 0.0866814
7.2, 0.0972277
7.23, 0.110064
7.26, 0.115167
7.29, 0.127539
7.32, 0.144258
7.35, 0.153012
7.38, 0.174038
7.41, 0.225962
7.44, 0.263917
7.47, 0.28576
7.5, 0.404061
7.53, 0.457876
7.56, 0.475968
7.59, 0.565959
7.62, 0.637759
7.65, 0.708031
7.68, 0.764103
7.71, 0.779736
7.74, 0.779262
7.77, 0.785727
7.8, 0.719721
7.83, 0.595983
7.86, 0.578595
7.89, 0.569409
7.92, 0.469579
7.95, 0.295603
7.98, 0.160881
8.01, 0.135165
8.04, 0.123148
8.07, 0.0806725
8.1, 0.0788297
8.13, 0.0748885
8.16, 0.0667329
8.19, 0.0643855
8.22, 0.0638872
8.25, 0.0633335
8.28, 0.062756
8.31, 0.0621867
8.34, 0.0616572
8.37, 0.0611993
8.4, 0.0608449
8.43, 0.0605553
8.46, 0.0617831
8.49, 0.0625684
8.52, 0.0648251
8.55, 0.0673206
8.58, 0.0681062
8.61, 0.0714951
8.64, 0.0758798
8.67, 0.0791088
8.7, 0.0831374
8.73, 0.0920038
8.76, 0.0974444
8.79, 0.101784
8.82, 0.109911
8.85, 0.116664
8.88, 0.12354
8.91, 0.129227
8.94, 0.128738
8.97, 0.120628
9, 0.117472
9.03, 0.113682
9.06, 0.102883
9.09, 0.0936059
9.12, 0.0905668
9.15, 0.0848234
9.18, 0.0719449
9.21, 0.0608316
9.24, 0.0578251
9.27, 0.0580667
9.3, 0.0565895
9.33, 0.0545705
9.36, 0.0541684
9.39, 0.054401
9.42, 0.054331
9.45, 0.0543373
9.48, 0.0543438
9.51, 0.0543395
9.54, 0.0543409
9.57, 0.0543407
9.6, 0.0543406
9.63, 0.0543407
9.66, 0.0543407
9.69, 0.0543407
9.72, 0.0543407
9.75, 0.0543407
9.78, 0.0543407
9.81, 0.0543407
9.84, 0.0543407
9.87, 0.0543407
9.9, 0.0543407
9.93, 0.0543407
9.96, 0.0543407
9.99, 0.0543407
10.02, 0.0543407
10.05, 0.0543407
10.08, 0.0543407
10.11, 0.0543407
10.14, 0.0543407
10.17, 0.0543407
10.2, 0.0543407
10.23, 0.0543407
10.26, 0.0543407
10.29, 0.0543407
10.32, 0.0543407
10.35, 0.0543407
10.38, 0.0543407
10.41, 0.0543407
10.44, 0.0543407
10.47, 0.0543407
10.5, 0.0543407
10.53, 0.0543407
10.56, 0.0543407
10.59, 0.0543407
10.62, 0.0543407
10.65, 0.0543407
10.68, 0.0543407
10.71, 0.0543407
10.74, 0.0543407
10.77, 0.0543407
10.8, 0.0543407
10.83, 0.0543407
10.86, 0.0543407
10.89, 0.0543407
10.92, 0.0543407
10.95, 0.0543407
10.98, 0.0543406
11.01, 0.0543408
11.04, 0.0543407
11.07, 0.0543394
11.1, 0.0543454
11.13, 0.0543309
11.16, 0.0543418
11.19, 0.0544032
11.22, 0.0540848
11.25, 0.0549567
11.28, 0.0569271
11.31, 0.0570312
11.34, 0.0565696
11.37, 0.0575125
11.4, 0.0595324
11.43, 0.0605172
11.46, 0.0612032
11.49, 0.0627754
11.52, 0.0645931
11.55, 0.0661922
11.58, 0.0720889
11.61, 0.078465
11.64, 0.0828065
11.67, 0.0875928
11.7, 0.093008
11.73, 0.0995201
11.76, 0.105951
11.79, 0.109723
11.82, 0.11007
11.85, 0.110008
11.88, 0.105462
11.91, 0.094336
11.94, 0.089976
11.97, 0.0844208
12, 0.0790529
12.03, 0.077487
12.06, 0.0668555
12.09, 0.0614105
12.12, 0.0616778
12.15, 0.0594429
12.18, 0.0592064
12.21, 0.0595083
12.24, 0.0593215
12.27, 0.0593982
12.3, 0.0603033
12.33, 0.0613593
12.36, 0.062215
12.39, 0.0632414
12.42, 0.0650646
12.45, 0.0676057
12.48, 0.0708924
12.51, 0.0733708
12.54, 0.0732431
12.57, 0.0744959
12.6, 0.0766563
12.63, 0.0769727
12.66, 0.0749542
12.69, 0.0737695
12.72, 0.072563
12.75, 0.0704687
12.78, 0.0685626
12.81, 0.0667252
12.84, 0.0645494
12.87, 0.0611793
12.9, 0.0572067
12.93, 0.0565384
12.96, 0.0570257
12.99, 0.0567921
13.02, 0.0567919
13.05, 0.0578963
13.08, 0.0577342
13.11, 0.0567346
13.14, 0.0568517
13.17, 0.0568976
13.2, 0.0568498
13.23, 0.0568822
13.26, 0.0568726
13.29, 0.0567746
13.32, 0.0573522
13.35, 0.0585131
13.38, 0.0593941
13.41, 0.0594444
13.44, 0.059371
13.47, 0.0594023
13.5, 0.0593953
13.53, 0.0593942
13.56, 0.0593984
13.59, 0.0593901
13.62, 0.0593985
13.65, 0.0594226
13.68, 0.0592699
13.71, 0.0597432
13.74, 0.0607287
13.77, 0.0607879
13.8, 0.0601893
13.83, 0.062025
13.86, 0.0662562
13.89, 0.0691733
13.92, 0.0703685
13.95, 0.0713594
13.98, 0.0738961
14.01, 0.077854
14.04, 0.0801667
14.07, 0.0818048
14.1, 0.0838251
14.13, 0.084782
14.16, 0.0822868
14.19, 0.0796113
14.22, 0.0779067
14.25, 0.0759593
14.28, 0.0743546
14.31, 0.0709309
14.34, 0.0676929
14.37, 0.0670132
14.4, 0.0658886
14.43, 0.0662043
14.46, 0.0671236
14.49, 0.0694367
14.52, 0.077552
14.55, 0.0807846
14.58, 0.0845429
14.61, 0.0936748
14.64, 0.097513
14.67, 0.102763
14.7, 0.110174
14.73, 0.118054
14.76, 0.126556
14.79, 0.126796
14.82, 0.124937
14.85, 0.12335
14.88, 0.113752
14.91, 0.103624
14.94, 0.0943979
14.97, 0.088082
15, 0.08672
15.03, 0.0789264
15.06, 0.0688454
15.09, 0.0641857
15.12, 0.064511
15.15, 0.0626572
15.18, 0.0624691
15.21, 0.0648049
15.24, 0.0656376
15.27, 0.0665036
15.3, 0.0675321
15.33, 0.0684491
15.36, 0.0694077
15.39, 0.0704925
15.42, 0.0708365
15.45, 0.0708102
15.48, 0.0708043
15.51, 0.0697354
15.54, 0.0697058
15.57, 0.0688696
15.6, 0.0657655
15.63, 0.0644985
15.66, 0.064505
15.69, 0.0642791
15.72, 0.0631649
15.75, 0.0619034
15.78, 0.0630405
15.81, 0.0650435
15.84, 0.0657272
15.87, 0.066386
15.9, 0.0697052
15.93, 0.0730917
15.96, 0.0746988
15.99, 0.076634
16.02, 0.0784263
16.05, 0.0808455
16.08, 0.0836899
16.11, 0.0847973
16.14, 0.0831764
16.17, 0.0816841
16.2, 0.0805641
16.23, 0.077579
16.26, 0.0749794
16.29, 0.0707604
16.32, 0.066481
16.35, 0.065753
16.38, 0.0649688
16.41, 0.0639175
16.44, 0.0629453
16.47, 0.0619772
16.5, 0.0618529
16.53, 0.061952
16.56, 0.0619168
16.59, 0.0619224
16.62, 0.0619243
16.65, 0.0619225
16.68, 0.0619232
16.71, 0.0619231
16.74, 0.0619231
16.77, 0.0619231
16.8, 0.0619231
16.83, 0.0619231
16.86, 0.061923
16.89, 0.0619234
16.92, 0.0619223
16.95, 0.0619233
16.98, 0.0619274
17.01, 0.0619042
17.04, 0.0619668
17.07, 0.0618965
17.1, 0.0617149
17.13, 0.0633896
17.16, 0.0647367
17.19, 0.0644046
17.22, 0.0643575
17.25, 0.065113
17.28, 0.0662418
17.31, 0.0670512
17.34, 0.0670632
17.37, 0.0662869
17.4, 0.0651114
17.43, 0.0644126
17.46, 0.0644824
17.49, 0.063753
17.52, 0.0625516
17.55, 0.0618541
17.58, 0.0619091
17.61, 0.0619401
17.64, 0.0619162
17.67, 0.0619245
17.7, 0.0619233
17.73, 0.0619228
17.76, 0.0619232
17.79, 0.061923
17.82, 0.0619231
17.85, 0.0619231
17.88, 0.0619231
17.91, 0.0619231
17.94, 0.0619231
17.97, 0.0619231
18, 0.061923
18.03, 0.0619233
18.06, 0.061923
18.09, 0.0619219
18.12, 0.0619281
18.15, 0.0619117
18.18, 0.0619293
18.21, 0.0619797
18.24, 0.0616579
18.27, 0.0626535
18.3, 0.0645643
18.33, 0.0645688
18.36, 0.0642267
18.39, 0.0649526
18.42, 0.0657023
18.45, 0.0646849
18.48, 0.0636512
18.51, 0.0626522
18.54, 0.0618557
18.57, 0.0618998
18.6, 0.0619445
18.63, 0.061915
18.66, 0.0619246
18.69, 0.0619234
18.72, 0.0619227
18.75, 0.0619232
18.78, 0.061923
18.81, 0.0619231
18.84, 0.0619231
18.87, 0.0619231
18.9, 0.0619231
18.93, 0.0619231
18.96, 0.061923
18.99, 0.0619232
19.02, 0.0619228
19.05, 0.0619231
19.08, 0.0619249
19.11, 0.0619158
19.14, 0.0619381
19.17, 0.0619199
19.2, 0.061831
19.23, 0.0624983
19.26, 0.0635783
19.29, 0.0645048
19.32, 0.0654588
19.35, 0.0664261
19.38, 0.0673619
19.41, 0.0683406
19.44, 0.0693425
19.47, 0.0697133
19.5, 0.0691193
19.53, 0.0681412
19.56, 0.0672781
19.59, 0.0652351
19.62, 0.0644053
19.65, 0.0642519
19.68, 0.0621665
19.71, 0.0617124
19.74, 0.0620007
19.77, 0.0619092
19.8, 0.0619196
19.83, 0.0619269
19.86, 0.0619216
19.89, 0.0619234
19.92, 0.0619231
19.95, 0.0619229
19.98, 0.0619234
20.01, 0.0619225
20.04, 0.0619228
20.07, 0.061928
20.1, 0.0619057
20.13, 0.0619556
20.16, 0.0619291
20.19, 0.0616778
20.22, 0.0631693
20.25, 0.0647254
20.28, 0.0644418
20.31, 0.0642435
20.34, 0.0655469
20.37, 0.0678579
20.4, 0.0695485
20.43, 0.0695982
20.46, 0.0694048
20.49, 0.0696471
20.52, 0.0694175
20.55, 0.0675269
20.58, 0.0653546
20.61, 0.0639629
20.64, 0.0630599
20.67, 0.0620259
20.7, 0.0619697
20.73, 0.0615276
20.76, 0.0605792
20.79, 0.060626
20.82, 0.0606853
20.85, 0.0606565
20.88, 0.0606514
20.91, 0.060642
20.94, 0.0607934
20.97, 0.060159
21, 0.0592935
21.03, 0.0593743
21.06, 0.0594547
21.09, 0.059269
21.12, 0.0596022
21.15, 0.0606193
21.18, 0.060729
21.21, 0.0606569
21.24, 0.0606079
21.27, 0.0606435
21.3, 0.06163
21.33, 0.0620518
21.36, 0.0618901
21.39, 0.0619234
21.42, 0.0619277
21.45, 0.0619208
21.48, 0.0619235
21.51, 0.0619231
21.54, 0.0619246
21.57, 0.0619161
21.6, 0.0619393
21.63, 0.0619131
21.66, 0.0618461
21.69, 0.0625284
21.72, 0.0636953
21.75, 0.0644971
21.78, 0.0644996
21.81, 0.0643279
21.84, 0.0647828
21.87, 0.0658848
21.9, 0.0668662
21.93, 0.0671536
21.96, 0.0665977
21.99, 0.0655025
22.02, 0.0645302
22.05, 0.0643447
22.08, 0.0645818
22.11, 0.0642946
22.14, 0.0642522
22.17, 0.0677913
22.2, 0.0709647
22.23, 0.0723708
22.26, 0.0732955
22.29, 0.0729322
22.32, 0.0750964
22.35, 0.0772224
22.38, 0.075871
22.41, 0.0750838
22.44, 0.0727485
22.47, 0.0702361
22.5, 0.0695066
22.53, 0.0678749
22.56, 0.0647173
22.59, 0.063018
22.62, 0.0631578
22.65, 0.0611688
22.68, 0.0603613
22.71, 0.0608162
22.74, 0.0606085
22.77, 0.059586
22.8, 0.0592842
22.83, 0.0594316
22.86, 0.0593905
22.89, 0.0593856
22.92, 0.0594342
22.95, 0.0592995
22.98, 0.0594938
23.01, 0.0605253
23.04, 0.060753
23.07, 0.0606506
23.1, 0.0606315
23.13, 0.0605864
23.16, 0.0615112
23.19, 0.0620314
23.22, 0.0619376
23.25, 0.0619756
23.28, 0.0610576
23.31, 0.0604915
23.34, 0.0607359
23.37, 0.0607065
23.4, 0.0597347
23.43, 0.0592655
23.46, 0.0594251
23.49, 0.0593976
23.52, 0.0593903
23.55, 0.0593981
23.58, 0.059395
23.61, 0.0593956
23.64, 0.0593957
23.67, 0.0593956
23.7, 0.0593956
23.73, 0.0593956
23.76, 0.0593956
23.79, 0.0593956
23.82, 0.0593957
23.85, 0.0593956
23.88, 0.0593953
23.91, 0.059397
23.94, 0.0593923
23.97, 0.0593981
24, 0.0594099
24.03, 0.059323
24.06, 0.0595821
24.09, 0.0592139
24.12, 0.0571543
24.15, 0.0566577
24.18, 0.0569411
24.21, 0.0568568
24.24, 0.0568638
24.27, 0.0568719
24.3, 0.0568667
24.33, 0.0568684
24.36, 0.0568682
24.39, 0.0568681
24.42, 0.0568682
24.45, 0.0568681
24.48, 0.0568681
24.51, 0.0568683
24.54, 0.0568677
24.57, 0.0568689
24.6, 0.0568686
24.63, 0.0568614
24.66, 0.0568922
24.69, 0.0568229
24.72, 0.0568602
24.75, 0.0577253
24.78, 0.0588903
24.81, 0.0594853
24.84, 0.0593938
24.87, 0.0593901
24.9, 0.0593746
24.93, 0.0594542
24.96, 0.0593697
24.99, 0.0584352
25.02, 0.0574017
25.05, 0.0565035
25.08, 0.0555092
25.11, 0.0544847
25.14, 0.0542523
25.17, 0.054369
25.2, 0.0543372
25.23, 0.0543385
25.26, 0.0543423
25.29, 0.0543401
25.32, 0.0543407
25.35, 0.0543407
25.38, 0.0543406
25.41, 0.0543407
25.44, 0.0543407
25.47, 0.0543407
25.5, 0.0543407
25.53, 0.0543407
25.56, 0.0543407
25.59, 0.0543407
25.62, 0.0543407
25.65, 0.0543407
25.68, 0.0543407
25.71, 0.0543407
25.74, 0.0543407
25.77, 0.0543407
25.8, 0.0543407
25.83, 0.0543407
25.86, 0.0543407
25.89, 0.0543407
25.92, 0.0543407
25.95, 0.0543407
25.98, 0.0543407
26.01, 0.0543407
26.04, 0.0543407
26.07, 0.0543407
26.1, 0.0543407
26.13, 0.0543407
26.16, 0.0543407
26.19, 0.0543407
26.22, 0.0543407
26.25, 0.0543407
26.28, 0.0543407
26.31, 0.0543407
26.34, 0.0543407
26.37, 0.0543407
26.4, 0.0543407
26.43, 0.0543407
26.46, 0.0543407
26.49, 0.0543407
26.52, 0.0543407
26.55, 0.0543407
26.58, 0.0543407
26.61, 0.0543407
26.64, 0.0543407
26.67, 0.0543407
26.7, 0.0543407
26.73, 0.0543407
26.76, 0.0543407
26.79, 0.0543407
26.82, 0.0543407
26.85, 0.0543407
26.88, 0.0543407
26.91, 0.0543407
26.94, 0.0543407
26.97, 0.0543407
27, 0.0543407
27.03, 0.0543407
27.06, 0.0543407
27.09, 0.0543407
27.12, 0.0543407
27.15, 0.0543407
27.18, 0.0543407
27.21, 0.0543407
27.24, 0.0543407
27.27, 0.0543407
27.3, 0.0543407
27.33, 0.0543407
27.36, 0.0543407
27.39, 0.0543407
27.42, 0.0543407
27.45, 0.0543407
27.48, 0.0543407
27.51, 0.0543407
27.54, 0.0543407
27.57, 0.0543407
27.6, 0.0543407
27.63, 0.0543407
27.66, 0.0543407
27.69, 0.0543407
27.72, 0.0543407
27.75, 0.0543407
27.78, 0.0543407
27.81, 0.0543406
27.84, 0.0543408
27.87, 0.0543403
27.9, 0.0543412
27.93, 0.0543411
27.96, 0.0543356
27.99, 0.0543578
28.02, 0.0543105
28.05, 0.0543272
28.08, 0.054597
28.11, 0.0531339
28.14, 0.0515784
28.17, 0.0518107
28.2, 0.0518166
28.23, 0.051923
28.26, 0.0515281
28.29, 0.0505341
28.32, 0.0504887
28.35, 0.0505824
28.38, 0.05054
28.41, 0.0505501
28.44, 0.0505505
28.47, 0.0505488
28.5, 0.0505496
28.53, 0.0505494
28.56, 0.0505494
28.59, 0.0505495
28.62, 0.0505494
28.65, 0.0505495
28.68, 0.0505494
28.71, 0.0505495
28.74, 0.0505494
28.77, 0.0505495
28.8, 0.0505496
28.83, 0.0505487
28.86, 0.0505515
28.89, 0.0505466
28.92, 0.0505449
28.95, 0.0505857
28.98, 0.0504365
29.01, 0.0507311
29.04, 0.0517554
29.07, 0.0518908
29.1, 0.0518006
29.13, 0.0517814
29.16, 0.0517923
29.19, 0.0526299
29.22, 0.0538007
29.25, 0.0544269
29.28, 0.0543428
29.31, 0.0543271
29.34, 0.0543472
29.37, 0.0543392
29.4, 0.0543407
29.43, 0.0543391
29.46, 0.0543481
29.49, 0.0543241
29.52, 0.0543479
29.55, 0.0544296
29.58, 0.0537276
29.61, 0.0526759
29.64, 0.0517202
29.67, 0.0506961
29.7, 0.050459
29.73, 0.0505785
29.76, 0.0505458
29.79, 0.0505472
29.82, 0.0505511
29.85, 0.0505489
29.88, 0.0505495
29.91, 0.0505495
29.94, 0.0505494
29.97, 0.0505495
30, 0.0505494
30.03, 0.0505495
30.06, 0.0505495
30.09, 0.0505495
30.12, 0.0505495
30.15, 0.0505495
30.18, 0.0505495
30.21, 0.0505495
30.24, 0.0505495
30.27, 0.0505495
30.3, 0.0505495
30.33, 0.0505495
30.36, 0.0505495
30.39, 0.0505495
30.42, 0.0505495
30.45, 0.0505495
30.48, 0.0505495
30.51, 0.0505495
30.54, 0.0505495
30.57, 0.0505495
30.6, 0.0505495
30.63, 0.0505495
30.66, 0.0505495
30.69, 0.0505495
30.72, 0.0505495
30.75, 0.0505495
30.78, 0.0505495
30.81, 0.0505495
30.84, 0.0505495
30.87, 0.0505495
30.9, 0.0505495
30.93, 0.0505495
30.96, 0.0505495
30.99, 0.0505495
31.02, 0.0505495
31.05, 0.0505495
31.08, 0.0505495
31.11, 0.0505495
31.14, 0.0505495
31.17, 0.0505495
31.2, 0.0505495
31.23, 0.0505495
31.26, 0.0505495
31.29, 0.0505495
31.32, 0.0505495
31.35, 0.0505495
31.38, 0.0505495
31.41, 0.0505495
31.44, 0.0505495
31.47, 0.0505495
31.5, 0.0505495
31.53, 0.0505495
31.56, 0.0505495
31.59, 0.0505495
31.62, 0.0505495
31.65, 0.0505495
31.68, 0.0505495
31.71, 0.0505495
31.74, 0.0505495
31.77, 0.0505495
31.8, 0.0505495
31.83, 0.0505495
31.86, 0.0505495
31.89, 0.0505495
31.92, 0.0505495
31.95, 0.0505495
31.98, 0.0505495
32.01, 0.0505495
32.04, 0.0505495
32.07, 0.0505495
32.1, 0.0505495
32.13, 0.0505495
32.16, 0.0505495
32.19, 0.0505495
32.22, 0.0505495
32.25, 0.0505495
32.28, 0.0505495
32.31, 0.0505495
32.34, 0.0505495
32.37, 0.0505495
32.4, 0.0505495
32.43, 0.0505495
32.46, 0.0505495
32.49, 0.0505495
32.52, 0.0505495
32.55, 0.0505495
32.58, 0.0505495
32.61, 0.0505495
32.64, 0.0505495
32.67, 0.0505495
32.7, 0.0505495
32.73, 0.0505495
32.76, 0.0505495
32.79, 0.0505495
32.82, 0.0505495
32.85, 0.0505495
32.88, 0.0505495
32.91, 0.0505495
32.94, 0.0505495
32.97, 0.0505495
33, 0.0505495
33.03, 0.0505495
33.06, 0.0505495
33.09, 0.0505495
33.12, 0.0505495
33.15, 0.0505494
33.18, 0.0505495
33.21, 0.0505494
33.24, 0.0505494
33.27, 0.0505495
33.3, 0.0505493
33.33, 0.0505496
33.36, 0.0505499
33.39, 0.0505466
33.42, 0.0505578
33.45, 0.0505381
33.48, 0.0505314
33.51, 0.0506955
33.54, 0.0499985
33.57, 0.0492386
33.6, 0.0493249
33.63, 0.0483098
33.66, 0.0482819
33.69, 0.0497009
33.72, 0.0505587
33.75, 0.0496191
33.78, 0.0492489
33.81, 0.0490874
33.84, 0.0480348
33.87, 0.047856
33.9, 0.0485648
33.93, 0.0496827
33.96, 0.0505577
33.99, 0.0505959
34.02, 0.0505247
34.05, 0.0505564
34.08, 0.050549
34.11, 0.0505487
34.14, 0.0505499
34.17, 0.0505493
34.2, 0.0505495
34.23, 0.0505495
34.26, 0.0505494
34.29, 0.0505494
34.32, 0.0505495
34.35, 0.0505495
34.38, 0.0505493
34.41, 0.05055
34.44, 0.0505489
34.47, 0.0505479
34.5, 0.0505592
34.53, 0.0505212
34.56, 0.0505868
34.59, 0.050615
34.62, 0.0496838
34.65, 0.0491503
34.68, 0.0493125
34.71, 0.0492903
34.74, 0.0492793
34.77, 0.0492891
34.8, 0.0492838
34.83, 0.0492848
34.86, 0.0492978
34.89, 0.0492437
34.92, 0.0493634
34.95, 0.0493044
34.98, 0.0481765
35.01, 0.0485515
35.04, 0.0493736
35.07, 0.0492898
35.1, 0.0502737
35.13, 0.0506851
35.16, 0.0505106
35.19, 0.050552
35.22, 0.0505619
35.25, 0.0505116
35.28, 0.0506328
35.31, 0.0504965
35.34, 0.0494752
35.37, 0.0491624
35.4, 0.0493459
35.43, 0.0492605
35.46, 0.049189
35.49, 0.0500679
35.52, 0.0506846
35.55, 0.0505298
35.58, 0.0505406
35.61, 0.0505567
35.64, 0.0505469
35.67, 0.0505498
35.7, 0.0505495
35.73, 0.0505501
35.76, 0.0505472
35.79, 0.0505528
35.82, 0.0505536
35.85, 0.050511
35.88, 0.0506736
35.91, 0.050337
35.94, 0.04932
35.97, 0.0493408
36, 0.0487291
36.03, 0.0479302
36.06, 0.0480263
36.09, 0.0477901
36.12, 0.04924
36.15, 0.050795
36.18, 0.0505489
36.21, 0.050514
36.24, 0.0505676
36.27, 0.0505445
36.3, 0.0505497
36.33, 0.0505501
36.36, 0.0505491
36.39, 0.0505495
36.42, 0.0505494
36.45, 0.0505494
36.48, 0.0505495
36.51, 0.0505494
36.54, 0.0505495
36.57, 0.0505495
36.6, 0.0505495
36.63, 0.0505495
36.66, 0.0505495
36.69, 0.0505495
36.72, 0.0505495
36.75, 0.0505495
36.78, 0.0505495
36.81, 0.0505495
36.84, 0.0505495
36.87, 0.0505495
36.9, 0.0505495
36.93, 0.0505495
36.96, 0.0505495
36.99, 0.0505495
37.02, 0.0505495
37.05, 0.0505495
37.08, 0.0505495
37.11, 0.0505495
37.14, 0.0505495
37.17, 0.0505495
37.2, 0.0505495
37.23, 0.0505495
37.26, 0.0505495
37.29, 0.0505495
37.32, 0.0505495
37.35, 0.0505495
37.38, 0.0505495
37.41, 0.0505495
37.44, 0.0505495
37.47, 0.0505495
37.5, 0.0505495
37.53, 0.0505495
37.56, 0.0505495
37.59, 0.0505495
37.62, 0.0505495
37.65, 0.0505495
37.68, 0.0505495
37.71, 0.0505495
37.74, 0.0505495
37.77, 0.0505495
37.8, 0.0505495
37.83, 0.0505495
37.86, 0.0505495
37.89, 0.0505495
37.92, 0.0505495
37.95, 0.0505495
37.98, 0.0505495
38.01, 0.0505495
38.04, 0.0505495
38.07, 0.0505495
38.1, 0.0505495
38.13, 0.0505495
38.16, 0.0505495
38.19, 0.0505495
38.22, 0.0505495
38.25, 0.0505495
38.28, 0.0505495
38.31, 0.0505495
38.34, 0.0505495
38.37, 0.0505495
38.4, 0.0505495
38.43, 0.0505495
38.46, 0.0505495
38.49, 0.0505495
38.52, 0.0505495
38.55, 0.0505495
38.58, 0.0505495
38.61, 0.0505495
38.64, 0.0505495
38.67, 0.0505495
38.7, 0.0505495
38.73, 0.0505495
38.76, 0.0505495
38.79, 0.0505495
38.82, 0.0505495
38.85, 0.0505495
38.88, 0.0505495
38.91, 0.0505495
38.94, 0.0505495
38.97, 0.0505495
39, 0.0505495
39.03, 0.0505495
39.06, 0.0505495
39.09, 0.0505495
39.12, 0.0505495
39.15, 0.0505495
39.18, 0.0505495
39.21, 0.0505495
39.24, 0.0505495
39.27, 0.0505495
39.3, 0.0505495
39.33, 0.0505495
39.36, 0.0505495
39.39, 0.0505495
39.42, 0.0505495
39.45, 0.0505495
39.48, 0.0505495
39.51, 0.0505495
39.54, 0.0505495
39.57, 0.0505495
39.6, 0.0505495
39.63, 0.0505495
39.66, 0.0505495
39.69, 0.0505495
39.72, 0.0505495
39.75, 0.0505495
39.78, 0.0505495
39.81, 0.0505495
39.84, 0.0505494
39.87, 0.0505495
39.9, 0.0505495
39.93, 0.0505494
39.96, 0.0505495
39.99, 0.0505494
40.02, 0.0505493
40.05, 0.0505502
40.08, 0.0505476
40.11, 0.0505515
40.14, 0.0505554
40.17, 0.0505128
40.2, 0.0506539
40.23, 0.050412
40.26, 0.0493811
40.29, 0.0492
40.32, 0.0492947
40.35, 0.0493188
40.38, 0.0493342
40.41, 0.048429
40.44, 0.0477693
40.47, 0.0482537
40.5, 0.0492474
40.53, 0.0493255
40.56, 0.0493731
40.59, 0.0490622
40.62, 0.0480431
40.65, 0.0479386
40.68, 0.0480912
40.71, 0.0479455
40.74, 0.0480236
40.77, 0.0490338
40.8, 0.0493774
40.83, 0.049321
40.86, 0.0492651
40.89, 0.0482812
40.92, 0.0477795
40.95, 0.0483675
40.98, 0.0493387
41.01, 0.0494665
41.04, 0.0483873
41.07, 0.0482776
41.1, 0.0493506
41.13, 0.0493128
41.16, 0.0493843
41.19, 0.0488878
41.22, 0.0479478
41.25, 0.047981
41.28, 0.0480834
41.31, 0.0479189
41.34, 0.0481417
41.37, 0.0491583
41.4, 0.0495535
41.43, 0.0486532
41.46, 0.0480928
41.49, 0.0491899
41.52, 0.049407
41.55, 0.04921
41.58, 0.0493442
41.61, 0.0493283
41.64, 0.0483611
41.67, 0.0478903
41.7, 0.0480524
41.73, 0.0480239
41.76, 0.0480142
41.79, 0.0480334
41.82, 0.0480041
41.85, 0.048021
41.88, 0.0481443
41.91, 0.047377
41.94, 0.0466324
41.97, 0.0467628
42, 0.0467742
42.03, 0.0467495
42.06, 0.0467607
42.09, 0.0467581
42.12, 0.046758
42.15, 0.0467584
42.18, 0.0467582
42.21, 0.0467582
42.24, 0.0467582
42.27, 0.0467582
42.3, 0.0467582
42.33, 0.0467582
42.36, 0.0467582
42.39, 0.0467582
42.42, 0.0467582
42.45, 0.0467582
42.48, 0.0467582
42.51, 0.0467582
42.54, 0.0467582
42.57, 0.0467582
42.6, 0.0467582
42.63, 0.0467582
42.66, 0.0467582
42.69, 0.0467582
42.72, 0.0467582
42.75, 0.0467582
42.78, 0.0467582
42.81, 0.0467582
42.84, 0.0467582
42.87, 0.0467582
42.9, 0.0467582
42.93, 0.0467582
42.96, 0.0467582
42.99, 0.0467582
43.02, 0.0467582
43.05, 0.0467582
43.08, 0.0467582
43.11, 0.0467582
43.14, 0.0467582
43.17, 0.0467582
43.2, 0.0467582
43.23, 0.0467582
43.26, 0.0467582
43.29, 0.0467582
43.32, 0.0467582
43.35, 0.0467582
43.38, 0.0467582
43.41, 0.0467582
43.44, 0.0467582
43.47, 0.0467582
43.5, 0.0467582
43.53, 0.0467582
43.56, 0.0467582
43.59, 0.0467582
43.62, 0.0467582
43.65, 0.0467582
43.68, 0.0467582
43.71, 0.0467582
43.74, 0.0467582
43.77, 0.0467582
43.8, 0.0467582
43.83, 0.0467582
43.86, 0.0467582
43.89, 0.0467582
43.92, 0.0467582
43.95, 0.0467582
43.98, 0.0467582
44, 0.0467582